File: thermodynamics/special_capacity/ExpDat_03881-2_bline_-30-180_10_Ar-20-70_03.04.12.csv
#EXPORTTYPE:                 ,DATA SINGLE
#FILE:                       ,03881-2_bline_-30-180_10_Ar-20-70_03.04.12.bd3
#FORMAT:                     ,NETZSCH5
#FTYPE:                      ,ASCII
#IDENTITY:                   ,03881-2
#DECIMAL:                    ,POINT
#SEPARATOR:                  ,COMMA
#MTYPE:                      ,DSC
#INSTRUMENT:                 ,NETZSCH DSC 204F1
#PROJECT:                    ,'??<R?¿?Raai
#DATE/TIME:                  ,03-Apr-12 5:24:10 PM
#CORR. FILE:                 ,
#TEMPCAL:                    ,03060_Al-pirced_10_Ar-20-70_27.01.11.td3
#SENSITIVITY:                ,Senszero.exx
#LABORATORY:                 ,'?a¿Rý?-ÿ¿???
#OPERATOR:                   ,?a?e?-?R
#REMARK:                     ,
#SAMPLE:                     ,bline
#SAMPLE MASS /mg:            ,0.0000
#MATERIAL:                   ,??a
#REFERENCE:                  ,-?a
#REFERENCE MASS /mg:         ,0.0000
#TYPE OF CRUCIBLE:           ,Pan Al, pierced lid
#SAMPLE CRUCIBLE MASS /mg:   ,0.0000
#REFERENCE CRUCIBLE MASS /mg:,0.0000
#M.RANGE /cV:                ,5000
#TAU-R:                      ,---
#CORR. CODE:                 ,000
#EXO:                        ,+1
#RANGE:                      ,-30oC....180oC/0.0....10.0K/min
#SEGMENT:                    ,S1-3/3
#SEG. 1:                     ,-30oC/00:10/-30oC
#SEG. 2:                     ,-30oC/10.0(K/min)/180oC
#SEG. 3:                     ,180oC/00:10/180oC

##Temp./oC,Time/min,DSC/uV,Sensit./(uV/mW),Segment
-29.47700, 0.00000,    -5.69552,1.00000,1
-29.88180, 0.04000,    -5.59220,1.00000,1
-30.22031, 0.08000,    -5.36788,1.00000,1
-30.42907, 0.12000,    -4.90724,1.00000,1
-30.50932, 0.16000,    -4.22543,1.00000,1
-30.52700, 0.20000,    -3.46805,1.00000,1
-30.53835, 0.24000,    -2.77067,1.00000,1
-30.54950, 0.28000,    -2.20588,1.00000,1
-30.55427, 0.32000,    -1.82797,1.00000,1
-30.55154, 0.36000,    -1.63194,1.00000,1
-30.54522, 0.40000,    -1.55348,1.00000,1
-30.53866, 0.44000,    -1.53354,1.00000,1
-30.53201, 0.48000,    -1.54437,1.00000,1
-30.52467, 0.52000,    -1.56638,1.00000,1
-30.51690, 0.56000,    -1.58731,1.00000,1
-30.50985, 0.60000,    -1.60228,1.00000,1
-30.50395, 0.64000,    -1.60789,1.00000,1
-30.49675, 0.68000,    -1.60545,1.00000,1
-30.48536, 0.72000,    -1.59742,1.00000,1
-30.47405, 0.76000,    -1.58529,1.00000,1
-30.47424, 0.80000,    -1.56954,1.00000,1
-30.49266, 0.84000,    -1.55072,1.00000,1
-30.51613, 0.88000,    -1.52974,1.00000,1
-30.52700, 0.92000,    -1.50761,1.00000,1
-30.52078, 0.96000,    -1.48552,1.00000,1
-30.50612, 1.00000,    -1.46483,1.00000,1
-30.49067, 1.04000,    -1.44644,1.00000,1
-30.47583, 1.08000,    -1.42934,1.00000,1
-30.46145, 1.12000,    -1.41208,1.00000,1
-30.44766, 1.16000,    -1.39415,1.00000,1
-30.43482, 1.20000,    -1.37598,1.00000,1
-30.42322, 1.24000,    -1.35788,1.00000,1
-30.41268, 1.28000,    -1.33964,1.00000,1
-30.40289, 1.32000,    -1.32095,1.00000,1
-30.39371, 1.36000,    -1.30225,1.00000,1
-30.38512, 1.40000,    -1.28473,1.00000,1
-30.37708, 1.44000,    -1.26935,1.00000,1
-30.36952, 1.48000,    -1.25592,1.00000,1
-30.36233, 1.52000,    -1.24394,1.00000,1
-30.35544, 1.56000,    -1.23248,1.00000,1
-30.34882, 1.60000,    -1.22018,1.00000,1
-30.34243, 1.64000,    -1.20628,1.00000,1
-30.33625, 1.68000,    -1.19265,1.00000,1
-30.33026, 1.72000,    -1.18170,1.00000,1
-30.32446, 1.76000,    -1.17328,1.00000,1
-30.31882, 1.80000,    -1.16472,1.00000,1
-30.31336, 1.84000,    -1.15392,1.00000,1
-30.30806, 1.88000,    -1.14149,1.00000,1
-30.30293, 1.92000,    -1.12871,1.00000,1
-30.29794, 1.96000,    -1.11667,1.00000,1
-30.29306, 2.00000,    -1.10619,1.00000,1
-30.28823, 2.04000,    -1.09774,1.00000,1
-30.28347, 2.08000,    -1.09027,1.00000,1
-30.27879, 2.12000,    -1.08238,1.00000,1
-30.27419, 2.16000,    -1.07362,1.00000,1
-30.26965, 2.20000,    -1.06444,1.00000,1
-30.26513, 2.24000,    -1.05536,1.00000,1
-30.26067, 2.28000,    -1.04694,1.00000,1
-30.25630, 2.32000,    -1.03975,1.00000,1
-30.25203, 2.36000,    -1.03369,1.00000,1
-30.24782, 2.40000,    -1.02803,1.00000,1
-30.24365, 2.44000,    -1.02209,1.00000,1
-30.23952, 2.48000,    -1.01561,1.00000,1
-30.23543, 2.52000,    -1.00843,1.00000,1
-30.23139, 2.56000,    -1.00090,1.00000,1
-30.22741, 2.60000,    -0.99394,1.00000,1
-30.22349, 2.64000,    -0.98819,1.00000,1
-30.21962, 2.68000,    -0.98333,1.00000,1
-30.21580, 2.72000,    -0.97877,1.00000,1
-30.21204, 2.76000,    -0.97423,1.00000,1
-30.20835, 2.80000,    -0.96967,1.00000,1
-30.20476, 2.84000,    -0.96504,1.00000,1
-30.20123, 2.88000,    -0.96016,1.00000,1
-30.19771, 2.92000,    -0.95485,1.00000,1
-30.19418, 2.96000,    -0.94926,1.00000,1
-30.19071, 3.00000,    -0.94392,1.00000,1
-30.18731, 3.04000,    -0.93920,1.00000,1
-30.18396, 3.08000,    -0.93480,1.00000,1
-30.18062, 3.12000,    -0.93026,1.00000,1
-30.17728, 3.16000,    -0.92527,1.00000,1
-30.17400, 3.20000,    -0.91966,1.00000,1
-30.17080, 3.24000,    -0.91355,1.00000,1
-30.16767, 3.28000,    -0.90808,1.00000,1
-30.16457, 3.32000,    -0.90459,1.00000,1
-30.16151, 3.36000,    -0.90265,1.00000,1
-30.15853, 3.40000,    -0.89999,1.00000,1
-30.15566, 3.44000,    -0.89517,1.00000,1
-30.15289, 3.48000,    -0.89022,1.00000,1
-30.15019, 3.52000,    -0.88794,1.00000,1
-30.14753, 3.56000,    -0.88818,1.00000,1
-30.14488, 3.60000,    -0.88789,1.00000,1
-30.14222, 3.64000,    -0.88473,1.00000,1
-30.13959, 3.68000,    -0.87978,1.00000,1
-30.13702, 3.72000,    -0.87493,1.00000,1
-30.13453, 3.76000,    -0.87062,1.00000,1
-30.13206, 3.80000,    -0.86588,1.00000,1
-30.12959, 3.84000,    -0.86013,1.00000,1
-30.12717, 3.88000,    -0.85449,1.00000,1
-30.12487, 3.92000,    -0.85047,1.00000,1
-30.12270, 3.96000,    -0.84800,1.00000,1
-30.12059, 4.00000,    -0.84541,1.00000,1
-30.11848, 4.04000,    -0.84161,1.00000,1
-30.11639, 4.08000,    -0.83807,1.00000,1
-30.11433, 4.12000,    -0.83682,1.00000,1
-30.11232, 4.16000,    -0.83791,1.00000,1
-30.11035, 4.20000,    -0.83941,1.00000,1
-30.10842, 4.24000,    -0.83967,1.00000,1
-30.10652, 4.28000,    -0.83837,1.00000,1
-30.10467, 4.32000,    -0.83560,1.00000,1
-30.10287, 4.36000,    -0.83184,1.00000,1
-30.10112, 4.40000,    -0.82803,1.00000,1
-30.09941, 4.44000,    -0.82496,1.00000,1
-30.09772, 4.48000,    -0.82276,1.00000,1
-30.09604, 4.52000,    -0.82138,1.00000,1
-30.09436, 4.56000,    -0.82023,1.00000,1
-30.09271, 4.60000,    -0.81821,1.00000,1
-30.09111, 4.64000,    -0.81467,1.00000,1
-30.08955, 4.68000,    -0.81073,1.00000,1
-30.08798, 4.72000,    -0.80795,1.00000,1
-30.08641, 4.76000,    -0.80652,1.00000,1
-30.08488, 4.80000,    -0.80529,1.00000,1
-30.08341, 4.84000,    -0.80333,1.00000,1
-30.08199, 4.88000,    -0.80069,1.00000,1
-30.08060, 4.92000,    -0.79771,1.00000,1
-30.07921, 4.96000,    -0.79478,1.00000,1
-30.07782, 5.00000,    -0.79241,1.00000,1
-30.07643, 5.04000,    -0.79085,1.00000,1
-30.07507, 5.08000,    -0.78949,1.00000,1
-30.07378, 5.12000,    -0.78753,1.00000,1
-30.07256, 5.16000,    -0.78496,1.00000,1
-30.07135, 5.20000,    -0.78254,1.00000,1
-30.07011, 5.24000,    -0.78083,1.00000,1
-30.06886, 5.28000,    -0.77947,1.00000,1
-30.06763, 5.32000,    -0.77786,1.00000,1
-30.06644, 5.36000,    -0.77580,1.00000,1
-30.06529, 5.40000,    -0.77341,1.00000,1
-30.06419, 5.44000,    -0.77074,1.00000,1
-30.06315, 5.48000,    -0.76728,1.00000,1
-30.06217, 5.52000,    -0.76247,1.00000,1
-30.06123, 5.56000,    -0.75732,1.00000,1
-30.06029, 5.60000,    -0.75443,1.00000,1
-30.05931, 5.64000,    -0.75537,1.00000,1
-30.05828, 5.68000,    -0.75735,1.00000,1
-30.05725, 5.72000,    -0.75659,1.00000,1
-30.05622, 5.76000,    -0.75265,1.00000,1
-30.05524, 5.80000,    -0.74837,1.00000,1
-30.05432, 5.84000,    -0.74604,1.00000,1
-30.05344, 5.88000,    -0.74503,1.00000,1
-30.05256, 5.92000,    -0.74405,1.00000,1
-30.05169, 5.96000,    -0.74255,1.00000,1
-30.05082, 6.00000,    -0.74077,1.00000,1
-30.04998, 6.04000,    -0.73898,1.00000,1
-30.04914, 6.08000,    -0.73750,1.00000,1
-30.04826, 6.12000,    -0.73666,1.00000,1
-30.04734, 6.16000,    -0.73625,1.00000,1
-30.04641, 6.20000,    -0.73549,1.00000,1
-30.04550, 6.24000,    -0.73391,1.00000,1
-30.04461, 6.28000,    -0.73223,1.00000,1
-30.04375, 6.32000,    -0.73143,1.00000,1
-30.04294, 6.36000,    -0.73140,1.00000,1
-30.04218, 6.40000,    -0.73092,1.00000,1
-30.04148, 6.44000,    -0.72907,1.00000,1
-30.04084, 6.48000,    -0.72631,1.00000,1
-30.04022, 6.52000,    -0.72344,1.00000,1
-30.03962, 6.56000,    -0.72106,1.00000,1
-30.03900, 6.60000,    -0.71953,1.00000,1
-30.03836, 6.64000,    -0.71897,1.00000,1
-30.03775, 6.68000,    -0.71853,1.00000,1
-30.03722, 6.72000,    -0.71716,1.00000,1
-30.03674, 6.76000,    -0.71486,1.00000,1
-30.03624, 6.80000,    -0.71269,1.00000,1
-30.03562, 6.84000,    -0.71145,1.00000,1
-30.03497, 6.88000,    -0.71077,1.00000,1
-30.03435, 6.92000,    -0.70995,1.00000,1
-30.03380, 6.96000,    -0.70877,1.00000,1
-30.03329, 7.00000,    -0.70739,1.00000,1
-30.03280, 7.04000,    -0.70605,1.00000,1
-30.03231, 7.08000,    -0.70521,1.00000,1
-30.03181, 7.12000,    -0.70529,1.00000,1
-30.03131, 7.16000,    -0.70577,1.00000,1
-30.03082, 7.20000,    -0.70512,1.00000,1
-30.03035, 7.24000,    -0.70240,1.00000,1
-30.02989, 7.28000,    -0.69926,1.00000,1
-30.02940, 7.32000,    -0.69788,1.00000,1
-30.02891, 7.36000,    -0.69826,1.00000,1
-30.02841, 7.40000,    -0.69824,1.00000,1
-30.02793, 7.44000,    -0.69624,1.00000,1
-30.02747, 7.48000,    -0.69337,1.00000,1
-30.02701, 7.52000,    -0.69137,1.00000,1
-30.02656, 7.56000,    -0.69071,1.00000,1
-30.02612, 7.60000,    -0.69064,1.00000,1
-30.02569, 7.64000,    -0.69043,1.00000,1
-30.02527, 7.68000,    -0.68975,1.00000,1
-30.02485, 7.72000,    -0.68838,1.00000,1
-30.02445, 7.76000,    -0.68664,1.00000,1
-30.02406, 7.80000,    -0.68533,1.00000,1
-30.02367, 7.84000,    -0.68498,1.00000,1
-30.02330, 7.88000,    -0.68487,1.00000,1
-30.02295, 7.92000,    -0.68400,1.00000,1
-30.02261, 7.96000,    -0.68248,1.00000,1
-30.02229, 8.00000,    -0.68152,1.00000,1
-30.02197, 8.04000,    -0.68190,1.00000,1
-30.02164, 8.08000,    -0.68245,1.00000,1
-30.02129, 8.12000,    -0.68162,1.00000,1
-30.02092, 8.16000,    -0.67917,1.00000,1
-30.02053, 8.20000,    -0.67621,1.00000,1
-30.02012, 8.24000,    -0.67379,1.00000,1
-30.01972, 8.28000,    -0.67250,1.00000,1
-30.01936, 8.32000,    -0.67276,1.00000,1
-30.01904, 8.36000,    -0.67416,1.00000,1
-30.01871, 8.40000,    -0.67547,1.00000,1
-30.01833, 8.44000,    -0.67571,1.00000,1
-30.01797, 8.48000,    -0.67513,1.00000,1
-30.01770, 8.52000,    -0.67430,1.00000,1
-30.01750, 8.56000,    -0.67343,1.00000,1
-30.01729, 8.60000,    -0.67243,1.00000,1
-30.01701, 8.64000,    -0.67122,1.00000,1
-30.01668, 8.68000,    -0.66997,1.00000,1
-30.01639, 8.72000,    -0.66889,1.00000,1
-30.01613, 8.76000,    -0.66816,1.00000,1
-30.01588, 8.80000,    -0.66787,1.00000,1
-30.01561, 8.84000,    -0.66797,1.00000,1
-30.01532, 8.88000,    -0.66768,1.00000,1
-30.01503, 8.92000,    -0.66614,1.00000,1
-30.01477, 8.96000,    -0.66382,1.00000,1
-30.01453, 9.00000,    -0.66254,1.00000,1
-30.01433, 9.04000,    -0.66354,1.00000,1
-30.01409, 9.08000,    -0.66556,1.00000,1
-30.01376, 9.12000,    -0.66677,1.00000,1
-30.01335, 9.16000,    -0.66656,1.00000,1
-30.01300, 9.20000,    -0.66560,1.00000,1
-30.01282, 9.24000,    -0.66441,1.00000,1
-30.01272, 9.28000,    -0.66283,1.00000,1
-30.01259, 9.32000,    -0.66057,1.00000,1
-30.01238, 9.36000,    -0.65806,1.00000,1
-30.01215, 9.40000,    -0.65644,1.00000,1
-30.01194, 9.44000,    -0.65654,1.00000,1
-30.01174, 9.48000,    -0.65788,1.00000,1
-30.01153, 9.52000,    -0.65963,1.00000,1
-30.01134, 9.56000,    -0.66127,1.00000,1
-30.01122, 9.60000,    -0.66256,1.00000,1
-30.01120, 9.64000,    -0.66336,1.00000,1
-30.01106, 9.68000,    -0.66387,1.00000,1
-30.01055, 9.72000,    -0.66430,1.00000,1
-30.00998, 9.76000,    -0.66393,1.00000,1
-30.01020, 9.80000,    -0.66103,1.00000,1
-30.01140, 9.84000,    -0.65514,1.00000,1
-30.01107, 9.88000,    -0.65084,1.00000,1
-30.00632, 9.92000,    -0.65361,1.00000,1
-30.00106, 9.96000,    -0.65931,1.00000,1
-30.00600,10.00000,    -0.65422,1.00000,1
-29.96890,10.04000,    -0.65529,1.00000,2
-29.63948,10.08000,     0.13719,1.00000,2
-29.16983,10.12000,     1.71169,1.00000,2
-28.68833,10.16000,     3.04956,1.00000,2
-28.14909,10.20000,     3.75579,1.00000,2
-27.61677,10.24000,     3.84866,1.00000,2
-27.12785,10.28000,     3.52103,1.00000,2
-26.69180,10.32000,     3.02005,1.00000,2
-26.30086,10.36000,     2.53746,1.00000,2
-25.94034,10.40000,     2.18259,1.00000,2
-25.59513,10.44000,     1.97115,1.00000,2
-25.25434,10.48000,     1.88025,1.00000,2
-24.91166,10.52000,     1.86272,1.00000,2
-24.56475,10.56000,     1.90247,1.00000,2
-24.21326,10.60000,     1.94806,1.00000,2
-23.85685,10.64000,     2.00710,1.00000,2
-23.49630,10.68000,     2.05553,1.00000,2
-23.13240,10.72000,     2.11332,1.00000,2
-22.76491,10.76000,     2.15434,1.00000,2
-22.39387,10.80000,     2.19712,1.00000,2
-22.01975,10.84000,     2.24378,1.00000,2
-21.64221,10.88000,     2.28513,1.00000,2
-21.26172,10.92000,     2.32534,1.00000,2
-20.87838,10.96000,     2.36007,1.00000,2
-20.49280,11.00000,     2.38610,1.00000,2
-20.10511,11.04000,     2.42216,1.00000,2
-19.71547,11.08000,     2.44742,1.00000,2
-19.32431,11.12000,     2.48087,1.00000,2
-18.93153,11.16000,     2.49523,1.00000,2
-18.53728,11.20000,     2.51840,1.00000,2
-18.14175,11.24000,     2.54020,1.00000,2
-17.74501,11.28000,     2.55763,1.00000,2
-17.34730,11.32000,     2.57305,1.00000,2
-16.94843,11.36000,     2.58927,1.00000,2
-16.54854,11.40000,     2.60464,1.00000,2
-16.14781,11.44000,     2.62219,1.00000,2
-15.74642,11.48000,     2.63697,1.00000,2
-15.34456,11.52000,     2.65634,1.00000,2
-14.94223,11.56000,     2.66282,1.00000,2
-14.53946,11.60000,     2.66734,1.00000,2
-14.13645,11.64000,     2.68568,1.00000,2
-13.73303,11.68000,     2.69826,1.00000,2
-13.32933,11.72000,     2.70491,1.00000,2
-12.92548,11.76000,     2.71206,1.00000,2
-12.52157,11.80000,     2.72131,1.00000,2
-12.11746,11.84000,     2.73354,1.00000,2
-11.71291,11.88000,     2.74240,1.00000,2
-11.30804,11.92000,     2.75100,1.00000,2
-10.90274,11.96000,     2.75494,1.00000,2
-10.49745,12.00000,     2.75706,1.00000,2
-10.09192,12.04000,     2.77508,1.00000,2
 -9.68640,12.08000,     2.77546,1.00000,2
 -9.28117,12.12000,     2.78630,1.00000,2
 -8.87592,12.16000,     2.77939,1.00000,2
 -8.47031,12.20000,     2.79322,1.00000,2
 -8.06487,12.24000,     2.78202,1.00000,2
 -7.65969,12.28000,     2.80370,1.00000,2
 -7.25458,12.32000,     2.80508,1.00000,2
 -6.84939,12.36000,     2.81113,1.00000,2
 -6.44421,12.40000,     2.81399,1.00000,2
 -6.03946,12.44000,     2.81564,1.00000,2
 -5.63414,12.48000,     2.81732,1.00000,2
 -5.22884,12.52000,     2.82315,1.00000,2
 -4.82338,12.56000,     2.82437,1.00000,2
 -4.41810,12.60000,     2.83626,1.00000,2
 -4.01254,12.64000,     2.83947,1.00000,2
 -3.60781,12.68000,     2.83702,1.00000,2
 -3.20266,12.72000,     2.83747,1.00000,2
 -2.79790,12.76000,     2.84552,1.00000,2
 -2.39290,12.80000,     2.84449,1.00000,2
 -1.98829,12.84000,     2.85519,1.00000,2
 -1.58310,12.88000,     2.85714,1.00000,2
 -1.17798,12.92000,     2.86107,1.00000,2
 -0.77327,12.96000,     2.86681,1.00000,2
 -0.36909,13.00000,     2.86710,1.00000,2
  0.03543,13.04000,     2.87221,1.00000,2
  0.43957,13.08000,     2.86867,1.00000,2
  0.84346,13.12000,     2.86302,1.00000,2
  1.24740,13.16000,     2.86975,1.00000,2
  1.65159,13.20000,     2.87250,1.00000,2
  2.05557,13.24000,     2.87885,1.00000,2
  2.45958,13.28000,     2.87948,1.00000,2
  2.86338,13.32000,     2.88002,1.00000,2
  3.26741,13.36000,     2.88519,1.00000,2
  3.67142,13.40000,     2.88279,1.00000,2
  4.07522,13.44000,     2.88248,1.00000,2
  4.47918,13.48000,     2.88871,1.00000,2
  4.88301,13.52000,     2.88661,1.00000,2
  5.28670,13.56000,     2.88354,1.00000,2
  5.69041,13.60000,     2.89873,1.00000,2
  6.09393,13.64000,     2.89487,1.00000,2
  6.49741,13.68000,     2.89433,1.00000,2
  6.90086,13.72000,     2.89396,1.00000,2
  7.30444,13.76000,     2.89885,1.00000,2
  7.70755,13.80000,     2.88990,1.00000,2
  8.11060,13.84000,     2.90166,1.00000,2
  8.51362,13.88000,     2.89635,1.00000,2
  8.91654,13.92000,     2.89986,1.00000,2
  9.31928,13.96000,     2.90120,1.00000,2
  9.72248,14.00000,     2.90142,1.00000,2
 10.12593,14.04000,     2.90919,1.00000,2
 10.52944,14.08000,     2.90882,1.00000,2
 10.93262,14.12000,     2.90914,1.00000,2
 11.33581,14.16000,     2.91748,1.00000,2
 11.73880,14.20000,     2.90678,1.00000,2
 12.14145,14.24000,     2.90746,1.00000,2
 12.54397,14.28000,     2.91396,1.00000,2
 12.94640,14.32000,     2.91446,1.00000,2
 13.34920,14.36000,     2.91663,1.00000,2
 13.75196,14.40000,     2.91274,1.00000,2
 14.15464,14.44000,     2.91145,1.00000,2
 14.55724,14.48000,     2.91139,1.00000,2
 14.95951,14.52000,     2.91586,1.00000,2
 15.36149,14.56000,     2.91335,1.00000,2
 15.76338,14.60000,     2.90659,1.00000,2
 16.16532,14.64000,     2.91003,1.00000,2
 16.56721,14.68000,     2.91375,1.00000,2
 16.96949,14.72000,     2.91780,1.00000,2
 17.37172,14.76000,     2.91449,1.00000,2
 17.77408,14.80000,     2.91448,1.00000,2
 18.17621,14.84000,     2.92052,1.00000,2
 18.57866,14.88000,     2.90789,1.00000,2
 18.98069,14.92000,     2.92691,1.00000,2
 19.38270,14.96000,     2.92060,1.00000,2
 19.78482,15.00000,     2.92288,1.00000,2
 20.18662,15.04000,     2.92579,1.00000,2
 20.58818,15.08000,     2.91850,1.00000,2
 20.98955,15.12000,     2.92787,1.00000,2
 21.39128,15.16000,     2.92683,1.00000,2
 21.79315,15.20000,     2.92242,1.00000,2
 22.19510,15.24000,     2.92851,1.00000,2
 22.59717,15.28000,     2.91914,1.00000,2
 22.99955,15.32000,     2.92578,1.00000,2
 23.40163,15.36000,     2.92720,1.00000,2
 23.80302,15.40000,     2.91992,1.00000,2
 24.20422,15.44000,     2.92706,1.00000,2
 24.60552,15.48000,     2.92186,1.00000,2
 25.00639,15.52000,     2.92374,1.00000,2
 25.40754,15.56000,     2.92144,1.00000,2
 25.80903,15.60000,     2.91933,1.00000,2
 26.21059,15.64000,     2.91609,1.00000,2
 26.61193,15.68000,     2.92559,1.00000,2
 27.01372,15.72000,     2.92140,1.00000,2
 27.41528,15.76000,     2.91960,1.00000,2
 27.81686,15.80000,     2.92178,1.00000,2
 28.21818,15.84000,     2.92801,1.00000,2
 28.61947,15.88000,     2.91988,1.00000,2
 29.02052,15.92000,     2.92191,1.00000,2
 29.42162,15.96000,     2.91916,1.00000,2
 29.82263,16.00000,     2.91505,1.00000,2
 30.22346,16.04000,     2.92117,1.00000,2
 30.62482,16.08000,     2.91861,1.00000,2
 31.02606,16.12000,     2.92344,1.00000,2
 31.42765,16.16000,     2.92233,1.00000,2
 31.82903,16.20000,     2.91455,1.00000,2
 32.23033,16.24000,     2.91801,1.00000,2
 32.63137,16.28000,     2.92189,1.00000,2
 33.03248,16.32000,     2.91430,1.00000,2
 33.43341,16.36000,     2.91253,1.00000,2
 33.83419,16.40000,     2.91186,1.00000,2
 34.23536,16.44000,     2.91449,1.00000,2
 34.63616,16.48000,     2.91298,1.00000,2
 35.03658,16.52000,     2.91305,1.00000,2
 35.43702,16.56000,     2.91233,1.00000,2
 35.83765,16.60000,     2.90977,1.00000,2
 36.23811,16.64000,     2.91562,1.00000,2
 36.63905,16.68000,     2.91083,1.00000,2
 37.04005,16.72000,     2.91569,1.00000,2
 37.44095,16.76000,     2.91546,1.00000,2
 37.84169,16.80000,     2.91053,1.00000,2
 38.24238,16.84000,     2.90849,1.00000,2
 38.64287,16.88000,     2.91166,1.00000,2
 39.04322,16.92000,     2.91471,1.00000,2
 39.44358,16.96000,     2.91892,1.00000,2
 39.84361,17.00000,     2.91395,1.00000,2
 40.24363,17.04000,     2.91175,1.00000,2
 40.64394,17.08000,     2.91010,1.00000,2
 41.04428,17.12000,     2.91611,1.00000,2
 41.44476,17.16000,     2.91474,1.00000,2
 41.84592,17.20000,     2.91066,1.00000,2
 42.24700,17.24000,     2.91612,1.00000,2
 42.64799,17.28000,     2.91837,1.00000,2
 43.04886,17.32000,     2.90872,1.00000,2
 43.44994,17.36000,     2.91658,1.00000,2
 43.85064,17.40000,     2.89950,1.00000,2
 44.25150,17.44000,     2.90843,1.00000,2
 44.65229,17.48000,     2.90402,1.00000,2
 45.05283,17.52000,     2.90839,1.00000,2
 45.45330,17.56000,     2.91441,1.00000,2
 45.85397,17.60000,     2.90481,1.00000,2
 46.25428,17.64000,     2.91238,1.00000,2
 46.65471,17.68000,     2.91081,1.00000,2
 47.05514,17.72000,     2.90260,1.00000,2
 47.45584,17.76000,     2.90900,1.00000,2
 47.85634,17.80000,     2.91097,1.00000,2
 48.25666,17.84000,     2.91148,1.00000,2
 48.65712,17.88000,     2.90585,1.00000,2
 49.05742,17.92000,     2.90669,1.00000,2
 49.45779,17.96000,     2.90873,1.00000,2
 49.85854,18.00000,     2.91377,1.00000,2
 50.25931,18.04000,     2.90774,1.00000,2
 50.65997,18.08000,     2.90556,1.00000,2
 51.06046,18.12000,     2.90752,1.00000,2
 51.46125,18.16000,     2.90720,1.00000,2
 51.86156,18.20000,     2.90207,1.00000,2
 52.26189,18.24000,     2.90325,1.00000,2
 52.66250,18.28000,     2.90700,1.00000,2
 53.06299,18.32000,     2.90504,1.00000,2
 53.46351,18.36000,     2.90145,1.00000,2
 53.86391,18.40000,     2.90155,1.00000,2
 54.26428,18.44000,     2.90337,1.00000,2
 54.66469,18.48000,     2.89581,1.00000,2
 55.06510,18.52000,     2.90255,1.00000,2
 55.46572,18.56000,     2.90174,1.00000,2
 55.86621,18.60000,     2.89609,1.00000,2
 56.26686,18.64000,     2.89947,1.00000,2
 56.66732,18.68000,     2.89903,1.00000,2
 57.06762,18.72000,     2.90468,1.00000,2
 57.46804,18.76000,     2.89217,1.00000,2
 57.86867,18.80000,     2.89786,1.00000,2
 58.26911,18.84000,     2.89591,1.00000,2
 58.66974,18.88000,     2.90015,1.00000,2
 59.07050,18.92000,     2.90699,1.00000,2
 59.47104,18.96000,     2.90524,1.00000,2
 59.87122,19.00000,     2.89116,1.00000,2
 60.27137,19.04000,     2.89290,1.00000,2
 60.67169,19.08000,     2.89585,1.00000,2
 61.07183,19.12000,     2.89545,1.00000,2
 61.47213,19.16000,     2.89463,1.00000,2
 61.87262,19.20000,     2.89689,1.00000,2
 62.27328,19.24000,     2.89870,1.00000,2
 62.67363,19.28000,     2.90139,1.00000,2
 63.07373,19.32000,     2.89282,1.00000,2
 63.47388,19.36000,     2.89197,1.00000,2
 63.87394,19.40000,     2.88537,1.00000,2
 64.27404,19.44000,     2.88611,1.00000,2
 64.67458,19.48000,     2.88940,1.00000,2
 65.07499,19.52000,     2.90323,1.00000,2
 65.47531,19.56000,     2.88968,1.00000,2
 65.87601,19.60000,     2.88749,1.00000,2
 66.27654,19.64000,     2.88652,1.00000,2
 66.67673,19.68000,     2.88755,1.00000,2
 67.07708,19.72000,     2.88035,1.00000,2
 67.47749,19.76000,     2.87814,1.00000,2
 67.87735,19.80000,     2.88057,1.00000,2
 68.27719,19.84000,     2.87566,1.00000,2
 68.67706,19.88000,     2.89160,1.00000,2
 69.07713,19.92000,     2.88243,1.00000,2
 69.47724,19.96000,     2.87962,1.00000,2
 69.87779,20.00000,     2.88417,1.00000,2
 70.27836,20.04000,     2.88869,1.00000,2
 70.67908,20.08000,     2.89112,1.00000,2
 71.07956,20.12000,     2.88006,1.00000,2
 71.47993,20.16000,     2.88088,1.00000,2
 71.88051,20.20000,     2.88077,1.00000,2
 72.28085,20.24000,     2.88356,1.00000,2
 72.68104,20.28000,     2.88327,1.00000,2
 73.08132,20.32000,     2.88142,1.00000,2
 73.48170,20.36000,     2.87044,1.00000,2
 73.88182,20.40000,     2.88282,1.00000,2
 74.28207,20.44000,     2.87850,1.00000,2
 74.68224,20.48000,     2.87741,1.00000,2
 75.08244,20.52000,     2.87877,1.00000,2
 75.48244,20.56000,     2.87293,1.00000,2
 75.88256,20.60000,     2.87076,1.00000,2
 76.28220,20.64000,     2.86596,1.00000,2
 76.68220,20.68000,     2.87638,1.00000,2
 77.08249,20.72000,     2.87535,1.00000,2
 77.48269,20.76000,     2.87024,1.00000,2
 77.88288,20.80000,     2.86964,1.00000,2
 78.28318,20.84000,     2.87128,1.00000,2
 78.68340,20.88000,     2.87479,1.00000,2
 79.08348,20.92000,     2.86543,1.00000,2
 79.48397,20.96000,     2.87027,1.00000,2
 79.88450,21.00000,     2.86772,1.00000,2
 80.28490,21.04000,     2.87071,1.00000,2
 80.68521,21.08000,     2.86659,1.00000,2
 81.08531,21.12000,     2.86113,1.00000,2
 81.48539,21.16000,     2.85589,1.00000,2
 81.88545,21.20000,     2.85682,1.00000,2
 82.28568,21.24000,     2.85915,1.00000,2
 82.68582,21.28000,     2.85599,1.00000,2
 83.08633,21.32000,     2.85664,1.00000,2
 83.48673,21.36000,     2.85684,1.00000,2
 83.88678,21.40000,     2.85630,1.00000,2
 84.28663,21.44000,     2.85864,1.00000,2
 84.68664,21.48000,     2.86411,1.00000,2
 85.08631,21.52000,     2.84983,1.00000,2
 85.48632,21.56000,     2.85449,1.00000,2
 85.88664,21.60000,     2.84890,1.00000,2
 86.28686,21.64000,     2.86301,1.00000,2
 86.68707,21.68000,     2.84745,1.00000,2
 87.08740,21.72000,     2.85697,1.00000,2
 87.48739,21.76000,     2.85628,1.00000,2
 87.88727,21.80000,     2.85511,1.00000,2
 88.28737,21.84000,     2.85177,1.00000,2
 88.68747,21.88000,     2.85096,1.00000,2
 89.08722,21.92000,     2.85578,1.00000,2
 89.48738,21.96000,     2.84227,1.00000,2
 89.88746,22.00000,     2.84735,1.00000,2
 90.28754,22.04000,     2.84720,1.00000,2
 90.68781,22.08000,     2.85057,1.00000,2
 91.08813,22.12000,     2.84850,1.00000,2
 91.48863,22.16000,     2.84992,1.00000,2
 91.88902,22.20000,     2.84828,1.00000,2
 92.28910,22.24000,     2.84536,1.00000,2
 92.68904,22.28000,     2.84028,1.00000,2
 93.08920,22.32000,     2.85074,1.00000,2
 93.48927,22.36000,     2.84504,1.00000,2
 93.88923,22.40000,     2.84656,1.00000,2
 94.28945,22.44000,     2.83909,1.00000,2
 94.68993,22.48000,     2.83779,1.00000,2
 95.09047,22.52000,     2.83953,1.00000,2
 95.49083,22.56000,     2.82893,1.00000,2
 95.89116,22.60000,     2.83230,1.00000,2
 96.29127,22.64000,     2.82995,1.00000,2
 96.69128,22.68000,     2.82427,1.00000,2
 97.09112,22.72000,     2.82478,1.00000,2
 97.49134,22.76000,     2.81851,1.00000,2
 97.89138,22.80000,     2.82340,1.00000,2
 98.29164,22.84000,     2.81936,1.00000,2
 98.69184,22.88000,     2.81555,1.00000,2
 99.09229,22.92000,     2.81873,1.00000,2
 99.49230,22.96000,     2.81780,1.00000,2
 99.89230,23.00000,     2.81515,1.00000,2
100.292,23.04000,     2.81468,1.00000,2
100.692,23.08000,     2.81659,1.00000,2
101.092,23.12000,     2.82571,1.00000,2
101.493,23.16000,     2.81953,1.00000,2
101.893,23.20000,     2.82956,1.00000,2
102.293,23.24000,     2.81332,1.00000,2
102.694,23.28000,     2.81968,1.00000,2
103.094,23.32000,     2.81717,1.00000,2
103.494,23.36000,     2.82217,1.00000,2
103.894,23.40000,     2.81343,1.00000,2
104.294,23.44000,     2.81801,1.00000,2
104.695,23.48000,     2.80856,1.00000,2
105.095,23.52000,     2.82338,1.00000,2
105.495,23.56000,     2.81937,1.00000,2
105.895,23.60000,     2.81407,1.00000,2
106.295,23.64000,     2.81259,1.00000,2
106.696,23.68000,     2.81086,1.00000,2
107.096,23.72000,     2.81779,1.00000,2
107.496,23.76000,     2.81102,1.00000,2
107.896,23.80000,     2.80956,1.00000,2
108.296,23.84000,     2.80477,1.00000,2
108.696,23.88000,     2.80474,1.00000,2
109.096,23.92000,     2.82274,1.00000,2
109.497,23.96000,     2.80981,1.00000,2
109.897,24.00000,     2.80445,1.00000,2
110.297,24.04000,     2.81161,1.00000,2
110.697,24.08000,     2.80630,1.00000,2
111.097,24.12000,     2.80555,1.00000,2
111.497,24.16000,     2.80311,1.00000,2
111.898,24.20000,     2.80126,1.00000,2
112.298,24.24000,     2.80576,1.00000,2
112.698,24.28000,     2.79661,1.00000,2
113.098,24.32000,     2.80231,1.00000,2
113.498,24.36000,     2.79374,1.00000,2
113.898,24.40000,     2.78616,1.00000,2
114.298,24.44000,     2.79575,1.00000,2
114.697,24.48000,     2.78149,1.00000,2
115.098,24.52000,     2.79231,1.00000,2
115.498,24.56000,     2.79036,1.00000,2
115.899,24.60000,     2.78738,1.00000,2
116.299,24.64000,     2.79146,1.00000,2
116.699,24.68000,     2.78665,1.00000,2
117.099,24.72000,     2.78525,1.00000,2
117.499,24.76000,     2.77829,1.00000,2
117.899,24.80000,     2.77650,1.00000,2
118.298,24.84000,     2.77709,1.00000,2
118.698,24.88000,     2.77556,1.00000,2
119.098,24.92000,     2.77919,1.00000,2
119.498,24.96000,     2.78677,1.00000,2
119.899,25.00000,     2.77660,1.00000,2
120.299,25.04000,     2.78480,1.00000,2
120.699,25.08000,     2.78561,1.00000,2
121.1,25.12000,     2.77838,1.00000,2
121.5,25.16000,     2.77309,1.00000,2
121.9,25.20000,     2.77555,1.00000,2
122.3,25.24000,     2.77687,1.00000,2
122.7,25.28000,     2.76298,1.00000,2
123.101,25.32000,     2.78248,1.00000,2
123.501,25.36000,     2.76492,1.00000,2
123.901,25.40000,     2.76771,1.00000,2
124.301,25.44000,     2.77727,1.00000,2
124.701,25.48000,     2.77158,1.00000,2
125.102,25.52000,     2.76879,1.00000,2
125.501,25.56000,     2.76234,1.00000,2
125.902,25.60000,     2.76587,1.00000,2
126.302,25.64000,     2.77459,1.00000,2
126.702,25.68000,     2.76312,1.00000,2
127.102,25.72000,     2.76256,1.00000,2
127.503,25.76000,     2.76507,1.00000,2
127.903,25.80000,     2.76503,1.00000,2
128.304,25.84000,     2.75822,1.00000,2
128.704,25.88000,     2.75149,1.00000,2
129.104,25.92000,     2.75325,1.00000,2
129.504,25.96000,     2.74153,1.00000,2
129.903,26.00000,     2.74920,1.00000,2
130.303,26.04000,     2.75108,1.00000,2
130.703,26.08000,     2.74596,1.00000,2
131.103,26.12000,     2.75141,1.00000,2
131.503,26.16000,     2.74635,1.00000,2
131.903,26.20000,     2.74027,1.00000,2
132.303,26.24000,     2.74723,1.00000,2
132.703,26.28000,     2.74645,1.00000,2
133.103,26.32000,     2.74637,1.00000,2
133.503,26.36000,     2.74129,1.00000,2
133.903,26.40000,     2.73662,1.00000,2
134.303,26.44000,     2.73696,1.00000,2
134.703,26.48000,     2.73570,1.00000,2
135.103,26.52000,     2.74096,1.00000,2
135.503,26.56000,     2.73227,1.00000,2
135.903,26.60000,     2.72761,1.00000,2
136.303,26.64000,     2.73317,1.00000,2
136.703,26.68000,     2.73043,1.00000,2
137.103,26.72000,     2.72929,1.00000,2
137.503,26.76000,     2.72512,1.00000,2
137.903,26.80000,     2.73172,1.00000,2
138.303,26.84000,     2.72114,1.00000,2
138.704,26.88000,     2.72524,1.00000,2
139.104,26.92000,     2.72087,1.00000,2
139.504,26.96000,     2.72454,1.00000,2
139.904,27.00000,     2.71996,1.00000,2
140.304,27.04000,     2.71512,1.00000,2
140.705,27.08000,     2.71816,1.00000,2
141.105,27.12000,     2.71826,1.00000,2
141.505,27.16000,     2.72138,1.00000,2
141.905,27.20000,     2.71634,1.00000,2
142.306,27.24000,     2.71916,1.00000,2
142.706,27.28000,     2.71514,1.00000,2
143.106,27.32000,     2.71834,1.00000,2
143.506,27.36000,     2.71353,1.00000,2
143.906,27.40000,     2.71396,1.00000,2
144.306,27.44000,     2.71237,1.00000,2
144.706,27.48000,     2.71120,1.00000,2
145.106,27.52000,     2.71516,1.00000,2
145.506,27.56000,     2.71547,1.00000,2
145.906,27.60000,     2.69459,1.00000,2
146.306,27.64000,     2.70592,1.00000,2
146.706,27.68000,     2.70640,1.00000,2
147.106,27.72000,     2.70374,1.00000,2
147.506,27.76000,     2.69984,1.00000,2
147.906,27.80000,     2.70277,1.00000,2
148.306,27.84000,     2.69505,1.00000,2
148.706,27.88000,     2.69436,1.00000,2
149.106,27.92000,     2.70041,1.00000,2
149.506,27.96000,     2.69586,1.00000,2
149.906,28.00000,     2.69620,1.00000,2
150.306,28.04000,     2.69547,1.00000,2
150.707,28.08000,     2.69532,1.00000,2
151.107,28.12000,     2.69598,1.00000,2
151.507,28.16000,     2.69862,1.00000,2
151.908,28.20000,     2.68989,1.00000,2
152.308,28.24000,     2.68591,1.00000,2
152.708,28.28000,     2.68628,1.00000,2
153.108,28.32000,     2.68218,1.00000,2
153.507,28.36000,     2.68704,1.00000,2
153.907,28.40000,     2.68388,1.00000,2
154.307,28.44000,     2.68121,1.00000,2
154.707,28.48000,     2.68063,1.00000,2
155.107,28.52000,     2.68211,1.00000,2
155.507,28.56000,     2.68165,1.00000,2
155.908,28.60000,     2.68000,1.00000,2
156.309,28.64000,     2.67649,1.00000,2
156.71,28.68000,     2.68140,1.00000,2
157.11,28.72000,     2.67873,1.00000,2
157.51,28.76000,     2.67207,1.00000,2
157.91,28.80000,     2.67250,1.00000,2
158.31,28.84000,     2.67085,1.00000,2
158.71,28.88000,     2.67036,1.00000,2
159.11,28.92000,     2.67346,1.00000,2
159.51,28.96000,     2.66753,1.00000,2
159.91,29.00000,     2.66671,1.00000,2
160.31,29.04000,     2.66221,1.00000,2
160.71,29.08000,     2.66367,1.00000,2
161.11,29.12000,     2.66091,1.00000,2
161.511,29.16000,     2.66311,1.00000,2
161.911,29.20000,     2.65957,1.00000,2
162.311,29.24000,     2.65719,1.00000,2
162.711,29.28000,     2.65373,1.00000,2
163.111,29.32000,     2.65236,1.00000,2
163.51,29.36000,     2.65472,1.00000,2
163.91,29.40000,     2.65181,1.00000,2
164.311,29.44000,     2.65015,1.00000,2
164.711,29.48000,     2.64820,1.00000,2
165.111,29.52000,     2.64193,1.00000,2
165.511,29.56000,     2.63741,1.00000,2
165.911,29.60000,     2.64577,1.00000,2
166.311,29.64000,     2.63864,1.00000,2
166.712,29.68000,     2.63738,1.00000,2
167.112,29.72000,     2.63993,1.00000,2
167.512,29.76000,     2.63369,1.00000,2
167.912,29.80000,     2.63470,1.00000,2
168.312,29.84000,     2.63240,1.00000,2
168.712,29.88000,     2.63190,1.00000,2
169.112,29.92000,     2.63283,1.00000,2
169.511,29.96000,     2.62997,1.00000,2
169.911,30.00000,     2.63153,1.00000,2
170.312,30.04000,     2.62527,1.00000,2
170.712,30.08000,     2.62858,1.00000,2
171.113,30.12000,     2.62708,1.00000,2
171.513,30.16000,     2.62811,1.00000,2
171.913,30.20000,     2.62133,1.00000,2
172.314,30.24000,     2.61446,1.00000,2
172.713,30.28000,     2.61045,1.00000,2
173.113,30.32000,     2.61198,1.00000,2
173.513,30.36000,     2.61715,1.00000,2
173.913,30.40000,     2.61391,1.00000,2
174.313,30.44000,     2.61475,1.00000,2
174.713,30.48000,     2.60700,1.00000,2
175.113,30.52000,     2.60380,1.00000,2
175.513,30.56000,     2.60184,1.00000,2
175.913,30.60000,     2.60658,1.00000,2
176.313,30.64000,     2.60762,1.00000,2
176.713,30.68000,     2.60219,1.00000,2
177.113,30.72000,     2.59973,1.00000,2
177.514,30.76000,     2.59170,1.00000,2
177.914,30.80000,     2.59640,1.00000,2
178.315,30.84000,     2.59877,1.00000,2
178.715,30.88000,     2.59412,1.00000,2
179.116,30.92000,     2.59070,1.00000,2
179.515,30.96000,     2.58016,1.00000,2
179.914,31.00000,     2.58661,1.00000,2
180.223,31.04000,     2.55043,1.00000,3
180.415,31.08000,     2.30626,1.00000,3
180.531,31.12000,     1.82696,1.00000,3
180.567,31.16000,     1.15125,1.00000,3
180.555,31.20000,     0.47817,1.00000,3
180.535,31.24000, 3.5808e-002,1.00000,3
180.522,31.28000,    -0.12771,1.00000,3
180.512,31.32000,    -0.13468,1.00000,3
180.499,31.36000,-9.3897e-002,1.00000,3
180.485,31.40000,-3.8271e-002,1.00000,3
180.471,31.44000, 1.7370e-002,1.00000,3
180.458,31.48000, 6.3817e-002,1.00000,3
180.447,31.52000, 9.7181e-002,1.00000,3
180.436,31.56000,     0.11557,1.00000,3
180.426,31.60000,     0.12384,1.00000,3
180.417,31.64000,     0.12826,1.00000,3
180.409,31.68000,     0.13176,1.00000,3
180.4,31.72000,     0.13414,1.00000,3
180.39,31.76000,     0.13509,1.00000,3
180.382,31.80000,     0.13449,1.00000,3
180.383,31.84000,     0.13228,1.00000,3
180.388,31.88000,     0.12909,1.00000,3
180.389,31.92000,     0.12617,1.00000,3
180.38,31.96000,     0.12448,1.00000,3
180.365,32.00000,     0.12364,1.00000,3
180.351,32.04000,     0.12297,1.00000,3
180.338,32.08000,     0.12199,1.00000,3
180.327,32.12000,     0.12039,1.00000,3
180.317,32.16000,     0.11813,1.00000,3
180.308,32.20000,     0.11630,1.00000,3
180.3,32.24000,     0.11615,1.00000,3
180.292,32.28000,     0.11725,1.00000,3
180.285,32.32000,     0.11757,1.00000,3
180.279,32.36000,     0.11565,1.00000,3
180.273,32.40000,     0.11241,1.00000,3
180.267,32.44000,     0.10926,1.00000,3
180.262,32.48000,     0.10679,1.00000,3
180.257,32.52000,     0.10474,1.00000,3
180.253,32.56000,     0.10287,1.00000,3
180.248,32.60000,     0.10111,1.00000,3
180.244,32.64000, 9.9415e-002,1.00000,3
180.24,32.68000, 9.8006e-002,1.00000,3
180.237,32.72000, 9.7306e-002,1.00000,3
180.233,32.76000, 9.7371e-002,1.00000,3
180.23,32.80000, 9.6828e-002,1.00000,3
180.226,32.84000, 9.4078e-002,1.00000,3
180.223,32.88000, 8.9778e-002,1.00000,3
180.22,32.92000, 8.6724e-002,1.00000,3
180.217,32.96000, 8.6793e-002,1.00000,3
180.214,33.00000, 8.8093e-002,1.00000,3
180.211,33.04000, 8.7956e-002,1.00000,3
180.208,33.08000, 8.5958e-002,1.00000,3
180.205,33.12000, 8.3805e-002,1.00000,3
180.203,33.16000, 8.2760e-002,1.00000,3
180.2,33.20000, 8.2116e-002,1.00000,3
180.197,33.24000, 8.0769e-002,1.00000,3
180.195,33.28000, 7.8888e-002,1.00000,3
180.192,33.32000, 7.7859e-002,1.00000,3
180.189,33.36000, 7.8465e-002,1.00000,3
180.186,33.40000, 7.9060e-002,1.00000,3
180.184,33.44000, 7.7553e-002,1.00000,3
180.181,33.48000, 7.4436e-002,1.00000,3
180.179,33.52000, 7.2654e-002,1.00000,3
180.176,33.56000, 7.4140e-002,1.00000,3
180.174,33.60000, 7.6659e-002,1.00000,3
180.171,33.64000, 7.7130e-002,1.00000,3
180.169,33.68000, 7.5125e-002,1.00000,3
180.166,33.72000, 7.2735e-002,1.00000,3
180.164,33.76000, 7.1660e-002,1.00000,3
180.161,33.80000, 7.1761e-002,1.00000,3
180.159,33.84000, 7.2455e-002,1.00000,3
180.157,33.88000, 7.2916e-002,1.00000,3
180.154,33.92000, 7.2089e-002,1.00000,3
180.152,33.96000, 6.9434e-002,1.00000,3
180.149,34.00000, 6.6370e-002,1.00000,3
180.147,34.04000, 6.4696e-002,1.00000,3
180.145,34.08000, 6.4415e-002,1.00000,3
180.143,34.12000, 6.3834e-002,1.00000,3
180.14,34.16000, 6.1844e-002,1.00000,3
180.138,34.20000, 5.9789e-002,1.00000,3
180.136,34.24000, 5.9489e-002,1.00000,3
180.134,34.28000, 6.0793e-002,1.00000,3
180.131,34.32000, 6.1679e-002,1.00000,3
180.129,34.36000, 6.0737e-002,1.00000,3
180.127,34.40000, 5.9145e-002,1.00000,3
180.125,34.44000, 5.8605e-002,1.00000,3
180.123,34.48000, 5.9040e-002,1.00000,3
180.121,34.52000, 5.8696e-002,1.00000,3
180.119,34.56000, 5.6479e-002,1.00000,3
180.117,34.60000, 5.4020e-002,1.00000,3
180.115,34.64000, 5.3493e-002,1.00000,3
180.113,34.68000, 5.4973e-002,1.00000,3
180.111,34.72000, 5.6543e-002,1.00000,3
180.109,34.76000, 5.6690e-002,1.00000,3
180.107,34.80000, 5.5712e-002,1.00000,3
180.105,34.84000, 5.4310e-002,1.00000,3
180.104,34.88000, 5.2824e-002,1.00000,3
180.102,34.92000, 5.1245e-002,1.00000,3
180.1,34.96000, 4.9653e-002,1.00000,3
180.098,35.00000, 4.8502e-002,1.00000,3
180.097,35.04000, 4.8299e-002,1.00000,3
180.095,35.08000, 4.8805e-002,1.00000,3
180.093,35.12000, 4.9074e-002,1.00000,3
180.092,35.16000, 4.8432e-002,1.00000,3
180.09,35.20000, 4.7320e-002,1.00000,3
180.089,35.24000, 4.6424e-002,1.00000,3
180.087,35.28000, 4.6045e-002,1.00000,3
180.086,35.32000, 4.6118e-002,1.00000,3
180.084,35.36000, 4.6559e-002,1.00000,3
180.083,35.40000, 4.7262e-002,1.00000,3
180.081,35.44000, 4.8102e-002,1.00000,3
180.08,35.48000, 4.8702e-002,1.00000,3
180.078,35.52000, 4.8441e-002,1.00000,3
180.077,35.56000, 4.7060e-002,1.00000,3
180.076,35.60000, 4.5682e-002,1.00000,3
180.074,35.64000, 4.5682e-002,1.00000,3
180.073,35.68000, 4.6905e-002,1.00000,3
180.072,35.72000, 4.7748e-002,1.00000,3
180.07,35.76000, 4.6990e-002,1.00000,3
180.069,35.80000, 4.5065e-002,1.00000,3
180.068,35.84000, 4.2778e-002,1.00000,3
180.067,35.88000, 4.0586e-002,1.00000,3
180.066,35.92000, 3.8610e-002,1.00000,3
180.065,35.96000, 3.7032e-002,1.00000,3
180.063,36.00000, 3.6299e-002,1.00000,3
180.062,36.04000, 3.6876e-002,1.00000,3
180.061,36.08000, 3.8192e-002,1.00000,3
180.06,36.12000, 3.8698e-002,1.00000,3
180.059,36.16000, 3.7400e-002,1.00000,3
180.058,36.20000, 3.5524e-002,1.00000,3
180.057,36.24000, 3.4749e-002,1.00000,3
180.056,36.28000, 3.5395e-002,1.00000,3
180.055,36.32000, 3.6487e-002,1.00000,3
180.054,36.36000, 3.7236e-002,1.00000,3
180.053,36.40000, 3.7749e-002,1.00000,3
180.052,36.44000, 3.8318e-002,1.00000,3
180.051,36.48000, 3.8830e-002,1.00000,3
180.051,36.52000, 3.8784e-002,1.00000,3
180.05,36.56000, 3.7855e-002,1.00000,3
180.049,36.60000, 3.6438e-002,1.00000,3
180.048,36.64000, 3.5079e-002,1.00000,3
180.047,36.68000, 3.3918e-002,1.00000,3
180.046,36.72000, 3.2711e-002,1.00000,3
180.046,36.76000, 3.1326e-002,1.00000,3
180.045,36.80000, 3.0103e-002,1.00000,3
180.044,36.84000, 2.9468e-002,1.00000,3
180.043,36.88000, 2.9293e-002,1.00000,3
180.043,36.92000, 2.8929e-002,1.00000,3
180.042,36.96000, 2.7962e-002,1.00000,3
180.041,37.00000, 2.6947e-002,1.00000,3
180.04,37.04000, 2.6641e-002,1.00000,3
180.04,37.08000, 2.7213e-002,1.00000,3
180.039,37.12000, 2.8273e-002,1.00000,3
180.039,37.16000, 2.9424e-002,1.00000,3
180.038,37.20000, 3.0314e-002,1.00000,3
180.037,37.24000, 3.0602e-002,1.00000,3
180.037,37.28000, 2.9992e-002,1.00000,3
180.036,37.32000, 2.8227e-002,1.00000,3
180.035,37.36000, 2.5389e-002,1.00000,3
180.035,37.40000, 2.2820e-002,1.00000,3
180.034,37.44000, 2.2069e-002,1.00000,3
180.034,37.48000, 2.2807e-002,1.00000,3
180.033,37.52000, 2.2928e-002,1.00000,3
180.033,37.56000, 2.1061e-002,1.00000,3
180.032,37.60000, 1.8860e-002,1.00000,3
180.032,37.64000, 1.8585e-002,1.00000,3
180.031,37.68000, 2.0349e-002,1.00000,3
180.031,37.72000, 2.2230e-002,1.00000,3
180.03,37.76000, 2.2699e-002,1.00000,3
180.03,37.80000, 2.2007e-002,1.00000,3
180.029,37.84000, 2.0818e-002,1.00000,3
180.029,37.88000, 1.9705e-002,1.00000,3
180.028,37.92000, 1.9159e-002,1.00000,3
180.028,37.96000, 1.9378e-002,1.00000,3
180.028,38.00000, 1.9492e-002,1.00000,3
180.027,38.04000, 1.8436e-002,1.00000,3
180.027,38.08000, 1.6363e-002,1.00000,3
180.027,38.12000, 1.4578e-002,1.00000,3
180.026,38.16000, 1.4005e-002,1.00000,3
180.026,38.20000, 1.3976e-002,1.00000,3
180.026,38.24000, 1.3505e-002,1.00000,3
180.025,38.28000, 1.2788e-002,1.00000,3
180.025,38.32000, 1.3143e-002,1.00000,3
180.024,38.36000, 1.5322e-002,1.00000,3
180.024,38.40000, 1.7780e-002,1.00000,3
180.024,38.44000, 1.8523e-002,1.00000,3
180.024,38.48000, 1.7429e-002,1.00000,3
180.023,38.52000, 1.6151e-002,1.00000,3
180.023,38.56000, 1.5927e-002,1.00000,3
180.023,38.60000, 1.6180e-002,1.00000,3
180.022,38.64000, 1.5958e-002,1.00000,3
180.022,38.68000, 1.5354e-002,1.00000,3
180.022,38.72000, 1.5450e-002,1.00000,3
180.022,38.76000, 1.6863e-002,1.00000,3
180.021,38.80000, 1.8289e-002,1.00000,3
180.021,38.84000, 1.8065e-002,1.00000,3
180.021,38.88000, 1.6273e-002,1.00000,3
180.021,38.92000, 1.4651e-002,1.00000,3
180.021,38.96000, 1.4439e-002,1.00000,3
180.02,39.00000, 1.4751e-002,1.00000,3
180.02,39.04000, 1.4260e-002,1.00000,3
180.02,39.08000, 1.2864e-002,1.00000,3
180.02,39.12000, 1.1622e-002,1.00000,3
180.019,39.16000, 1.1317e-002,1.00000,3
180.019,39.20000, 1.1539e-002,1.00000,3
180.019,39.24000, 1.1622e-002,1.00000,3
180.019,39.28000, 1.1495e-002,1.00000,3
180.019,39.32000, 1.1648e-002,1.00000,3
180.018,39.36000, 1.2312e-002,1.00000,3
180.018,39.40000, 1.2661e-002,1.00000,3
180.018,39.44000, 1.1685e-002,1.00000,3
180.018,39.48000, 9.7620e-003,1.00000,3
180.018,39.52000, 8.5813e-003,1.00000,3
180.018,39.56000, 9.3112e-003,1.00000,3
180.017,39.60000, 1.0965e-002,1.00000,3
180.017,39.64000, 1.2095e-002,1.00000,3
180.017,39.68000, 1.2188e-002,1.00000,3
180.017,39.72000, 1.1613e-002,1.00000,3
180.017,39.76000, 1.0684e-002,1.00000,3
180.016,39.80000, 9.3822e-003,1.00000,3
180.016,39.84000, 7.6287e-003,1.00000,3
180.016,39.88000, 5.8185e-003,1.00000,3
180.016,39.92000, 4.7935e-003,1.00000,3
180.016,39.96000, 5.0831e-003,1.00000,3
180.016,40.00000, 5.9773e-003,1.00000,3
180.016,40.04000, 6.5039e-003,1.00000,3
180.016,40.08000, 6.2908e-003,1.00000,3
180.016,40.12000, 5.5345e-003,1.00000,3
180.016,40.16000, 4.4400e-003,1.00000,3
180.015,40.20000, 3.1599e-003,1.00000,3
180.015,40.24000, 1.8470e-003,1.00000,3
180.015,40.28000, 9.1054e-004,1.00000,3
180.015,40.32000, 1.0032e-003,1.00000,3
180.014,40.36000, 2.4382e-003,1.00000,3
180.014,40.40000, 4.2181e-003,1.00000,3
180.014,40.44000, 5.0853e-003,1.00000,3
180.014,40.48000, 4.7892e-003,1.00000,3
180.014,40.52000, 4.0323e-003,1.00000,3
180.014,40.56000, 3.3917e-003,1.00000,3
180.014,40.60000, 2.8326e-003,1.00000,3
180.013,40.64000, 2.1935e-003,1.00000,3
180.013,40.68000, 1.6671e-003,1.00000,3
180.013,40.72000, 1.7812e-003,1.00000,3
180.013,40.76000, 2.7868e-003,1.00000,3
180.013,40.80000, 3.8440e-003,1.00000,3
180.013,40.84000, 3.8972e-003,1.00000,3
180.013,40.88000, 2.7394e-003,1.00000,3
180.013,40.91000, 1.4332e-003,1.00000,3