File: thermodynamics/5capacity/ExpDat_00089_CaC2O4_5_30-300_Al2O3-lids_Air-30-10_TGA.txt
#EXPORTTYPE:DATA ALL
#FILE:ExpDat_00094_CaC2O4_5_1000_Al2O3-lids_Air-30-10_TGA.imp
#FORMAT:NETZSCH5
#FTYPE:ASCII
#IDENTITY:ExpDat_00094_CaC2O4_5_1000_Al2O
#DECIMAL:POINT
#SEPARATOR:SEMICOLON
#MTYPE:TG
#INSTRUMENT:IMPORTED TG
#PROJECT:
#DATE/TIME:30.09.2008 10:08
#CORR. FILE:
#TEMPCAL:---
#LABORATORY:
#OPERATOR:
#REMARK:
#SAMPLE:
#SAMPLE MASS /mg:18.516
#MATERIAL:
#REFERENCE:
#REFERENCE MASS /mg:
#TYPE OF CRUCIBLE:
#SAMPLE CRUCIBLE MASS /mg:0.000
#REFERENCE CRUCIBLE MASS /mg:
#PROTECTIVE GAS:
#FLOW RATE:
#PURGE GAS 1:
#FLOW RATE 1:
#PURGE GAS 2:
#FLOW RATE 2:
#M.RANGE /mg:0
#CORR. CODE:600
#RANGE:30oC/5.0(K/min)/1000oC
#SEGMENT:S1/1
#SEG. 1:30oC/5.0(K/min)/1000oC

##Temp./oC;Time/min;Mass/%;DTG/(%/min)
 30.09999; 0.00000;100; 6.1895e-002
 30.59999; 0.10001;100.006; 4.7221e-002
 31.09999; 0.20002;100.006;-1.6020e-002
 31.59999; 0.30003;100.005;-1.4980e-002
 32.09999; 0.40004;100.003;-1.0591e-002
 32.59999; 0.50005;100.002;-9.5465e-003
 33.09999; 0.60006;100.001;-1.3154e-002
 33.59999; 0.70007; 99.99988;-1.4381e-002
 34.09999; 0.80008; 99.99836;-1.5788e-002
 34.59999; 0.90009; 99.99670;-1.7819e-002
 35.09999; 1.00010; 99.99480;-2.0003e-002
 35.59999; 1.10011; 99.99271;-2.1707e-002
 36.09999; 1.20012; 99.99048;-2.2269e-002
 36.59999; 1.30013; 99.98828;-2.1142e-002
 37.09999; 1.40014; 99.98628;-1.8520e-002
 37.59999; 1.50015; 99.98460;-1.4795e-002
 38.09999; 1.60017; 99.98333;-1.0542e-002
 38.59999; 1.70018; 99.98249;-6.1759e-003
 39.09999; 1.80019; 99.98208;-2.6045e-003
 39.59999; 1.90020; 99.98194;-8.6319e-004
 40.09999; 2.00021; 99.98187;-1.3491e-003
 40.59999; 2.10022; 99.98162;-4.3076e-003
 41.09999; 2.20023; 99.98097;-9.2190e-003
 41.59999; 2.30024; 99.97977;-1.5002e-002
 42.09999; 2.40025; 99.97797;-2.0517e-002
 42.59999; 2.50026; 99.97569;-2.4814e-002
 43.09999; 2.60027; 99.97304;-2.7799e-002
 43.59999; 2.70028; 99.97015;-2.9317e-002
 44.09999; 2.80029; 99.96719;-2.9861e-002
 44.59999; 2.90030; 99.96419;-2.9785e-002
 45.09999; 3.00031; 99.96124;-2.9121e-002
 45.59999; 3.10032; 99.95838;-2.7616e-002
 46.09999; 3.20033; 99.95573;-2.5140e-002
 46.59999; 3.30034; 99.95337;-2.1945e-002
 47.09999; 3.40035; 99.95135;-1.8422e-002
 47.59999; 3.50036; 99.94968;-1.4977e-002
 48.09999; 3.60037; 99.94834;-1.2122e-002
 48.59999; 3.70038; 99.94724;-1.0225e-002
 49.09999; 3.80039; 99.94629;-8.7344e-003
 49.59999; 3.90040; 99.94548;-7.5317e-003
 50.09999; 4.00041; 99.94478;-6.3349e-003
 50.59999; 4.10042; 99.94421;-5.2549e-003
 51.09999; 4.20043; 99.94373;-4.6474e-003
 51.59999; 4.30044; 99.94327;-4.8909e-003
 52.09999; 4.40045; 99.94274;-5.9820e-003
 52.59999; 4.50046; 99.94206;-7.5009e-003
 53.09999; 4.60047; 99.94124;-8.6742e-003
 53.59999; 4.70048; 99.94034;-9.2137e-003
 54.09999; 4.80050; 99.93942;-9.0021e-003
 54.59999; 4.90051; 99.93854;-8.7304e-003
 55.09999; 5.00052; 99.93766;-9.1691e-003
 55.59999; 5.10053; 99.93667;-1.1035e-002
 56.09999; 5.20054; 99.93544;-1.3985e-002
 56.59999; 5.30055; 99.93387;-1.7070e-002
 57.09999; 5.40056; 99.93204;-1.8983e-002
 57.59999; 5.50057; 99.93011;-1.8932e-002
 58.09999; 5.60058; 99.92830;-1.6316e-002
 58.59999; 5.70059; 99.92688;-1.1445e-002
 59.09999; 5.80060; 99.92603;-5.6033e-003
 59.59999; 5.90061; 99.92576;-7.2709e-005
 60.09999; 6.00062; 99.92598; 3.7579e-003
 60.59999; 6.10063; 99.92648; 5.3784e-003
 61.09999; 6.20064; 99.92702; 4.7875e-003
 61.59999; 6.30065; 99.92741; 2.8242e-003
 62.09999; 6.40066; 99.92757; 5.1079e-004
 62.59999; 6.50067; 99.92753;-1.1415e-003
 63.09999; 6.60068; 99.92736;-1.9856e-003
 63.59999; 6.70069; 99.92715;-1.7097e-003
 64.09999; 6.80070; 99.92702;-8.6043e-004
 64.59999; 6.90071; 99.92698; 7.9683e-005
 65.09999; 7.00072; 99.92703; 8.7442e-004
 65.59999; 7.10073; 99.92715; 1.2209e-003
 66.09999; 7.20074; 99.92726; 5.4750e-004
 66.59999; 7.30075; 99.92723;-1.7778e-003
 67.09999; 7.40076; 99.92687;-6.1111e-003
 67.59999; 7.50077; 99.92598;-1.2214e-002
 68.09999; 7.60078; 99.92440;-1.9738e-002
 68.59999; 7.70079; 99.92204;-2.7299e-002
 69.09999; 7.80080; 99.91897;-3.3337e-002
 69.59999; 7.90081; 99.91541;-3.6713e-002
 70.09999; 8.00082; 99.91168;-3.6838e-002
 70.59999; 8.10084; 99.90809;-3.4045e-002
 71.09999; 8.20085; 99.90490;-2.9329e-002
 71.59999; 8.30086; 99.90223;-2.4125e-002
 72.09999; 8.40087; 99.90007;-1.9535e-002
 72.59999; 8.50088; 99.89831;-1.6151e-002
 73.09999; 8.60089; 99.89681;-1.4124e-002
 73.59999; 8.70090; 99.89546;-1.3089e-002
 74.09999; 8.80091; 99.89420;-1.2140e-002
 74.59999; 8.90092; 99.89304;-1.0787e-002
 75.09999; 9.00093; 99.89205;-8.7394e-003
 75.59999; 9.10094; 99.89131;-5.6250e-003
 76.09999; 9.20095; 99.89095;-1.1709e-003
 76.59999; 9.30096; 99.89110; 4.4100e-003
 77.09999; 9.40097; 99.89184; 1.0299e-002
 77.59999; 9.50098; 99.89314; 1.5399e-002
 78.09999; 9.60099; 99.89489; 1.8638e-002
 78.59999; 9.70100; 99.89682; 1.8867e-002
 79.09999; 9.80101; 99.89860; 1.5530e-002
 79.59999; 9.90102; 99.89987; 9.0551e-003
 80.09999;10.00103; 99.90038; 7.0842e-004
 80.59999;10.10104; 99.90001;-7.7934e-003
 81.09999;10.20105; 99.89884;-1.4761e-002
 81.59999;10.30106; 99.89711;-1.8713e-002
 82.09999;10.40107; 99.89515;-1.9394e-002
 82.59999;10.50108; 99.89329;-1.7084e-002
 83.09999;10.60109; 99.89177;-1.3012e-002
 83.59999;10.70110; 99.89069;-8.7500e-003
 84.09999;10.80111; 99.88999;-5.7538e-003
 84.59999;10.90112; 99.88951;-4.5984e-003
 85.09999;11.00113; 99.88904;-5.4744e-003
 85.59999;11.10114; 99.88838;-8.0617e-003
 86.09999;11.20115; 99.88741;-1.1633e-002
 86.59999;11.30117; 99.88606;-1.5193e-002
 87.09999;11.40118; 99.88438;-1.7723e-002
 87.59999;11.50119; 99.88254;-1.8440e-002
 88.09999;11.60120; 99.88073;-1.6961e-002
 88.59999;11.70121; 99.87919;-1.3384e-002
 89.09999;11.80122; 99.87809;-8.3179e-003
 89.59999;11.90123; 99.87752;-3.1626e-003
 90.09999;12.00124; 99.87743; 6.8206e-004
 90.59999;12.10125; 99.87762; 2.2934e-003
 91.09999;12.20126; 99.87785; 1.4245e-003
 91.59999;12.30127; 99.87787;-1.4851e-003
 92.09999;12.40128; 99.87753;-5.3796e-003
 92.59999;12.50129; 99.87680;-9.1364e-003
 93.09999;12.60130; 99.87572;-1.2058e-002
 93.59999;12.70131; 99.87441;-1.3726e-002
 94.09999;12.80132; 99.87299;-1.4448e-002
 94.59999;12.90133; 99.87153;-1.4637e-002
 95.09999;13.00134; 99.87006;-1.4787e-002
 95.59999;13.10135; 99.86857;-1.5008e-002
 96.09999;13.20136; 99.86706;-1.5137e-002
 96.59999;13.30137; 99.86555;-1.4846e-002
 97.09999;13.40138; 99.86410;-1.3817e-002
 97.59999;13.50139; 99.86280;-1.2198e-002
 98.09999;13.60140; 99.86167;-1.0209e-002
 98.59999;13.70141; 99.86075;-8.3180e-003
 99.09999;13.80142; 99.85999;-7.3246e-003
 99.59999;13.90143; 99.85927;-7.5942e-003
100.1;14.00144; 99.85844;-9.3046e-003
100.6;14.10145; 99.85739;-1.2053e-002
101.1;14.20146; 99.85603;-1.5224e-002
101.6;14.30147; 99.85435;-1.7987e-002
102.1;14.40148; 99.85245;-1.9699e-002
102.6;14.50150; 99.85043;-2.0120e-002
103.1;14.60151; 99.84844;-1.9356e-002
103.6;14.70152; 99.84657;-1.7885e-002
104.1;14.80153; 99.84487;-1.6161e-002
104.6;14.90154; 99.84334;-1.4392e-002
105.1;15.00155; 99.84199;-1.2548e-002
105.6;15.10156; 99.84083;-1.0525e-002
106.1;15.20157; 99.83989;-8.3296e-003
106.6;15.30158; 99.83917;-6.1199e-003
107.1;15.40159; 99.83866;-4.1135e-003
107.6;15.50160; 99.83834;-2.5440e-003
108.1;15.60161; 99.83813;-1.8950e-003
108.6;15.70162; 99.83795;-1.9412e-003
109.1;15.80163; 99.83773;-2.7869e-003
109.6;15.90164; 99.83738;-4.6817e-003
110.1;16.00165; 99.83677;-7.7830e-003
110.6;16.10166; 99.83580;-1.2046e-002
111.1;16.20167; 99.83435;-1.6956e-002
111.6;16.30168; 99.83241;-2.1697e-002
112.1;16.40169; 99.83003;-2.5287e-002
112.6;16.50170; 99.82738;-2.6932e-002
113.1;16.60171; 99.82469;-2.6222e-002
113.6;16.70172; 99.82217;-2.3604e-002
114.1;16.80173; 99.81998;-2.0053e-002
114.6;16.90174; 99.81816;-1.6769e-002
115.1;17.00175; 99.81660;-1.4809e-002
115.6;17.10176; 99.81517;-1.4441e-002
116.1;17.20177; 99.81369;-1.5574e-002
116.6;17.30178; 99.81203;-1.7815e-002
117.1;17.40179; 99.81012;-2.0673e-002
117.6;17.50180; 99.80790;-2.3683e-002
118.1;17.60182; 99.80538;-2.6660e-002
118.6;17.70183; 99.80257;-2.9206e-002
119.1;17.80183; 99.79955;-3.0731e-002
119.6;17.90185; 99.79645;-3.0823e-002
120.1;18.00186; 99.79342;-2.9174e-002
120.6;18.10187; 99.79064;-2.6151e-002
121.1;18.20188; 99.78820;-2.2480e-002
121.6;18.30189; 99.78613;-1.9320e-002
122.1;18.40190; 99.78431;-1.7735e-002
122.6;18.50191; 99.78255;-1.8234e-002
123.1;18.60192; 99.78063;-2.0761e-002
123.6;18.70193; 99.77837;-2.4620e-002
124.1;18.80194; 99.77570;-2.8809e-002
124.6;18.90195; 99.77262;-3.2474e-002
125.1;19.00196; 99.76922;-3.5225e-002
125.6;19.10197; 99.76559;-3.6935e-002
126.1;19.20198; 99.76185;-3.7704e-002
126.6;19.30199; 99.75806;-3.7917e-002
127.1;19.40200; 99.75427;-3.7808e-002
127.6;19.50201; 99.75050;-3.7549e-002
128.1;19.60202; 99.74676;-3.7280e-002
128.6;19.70203; 99.74304;-3.7212e-002
129.1;19.80204; 99.73931;-3.7606e-002
129.6;19.90205; 99.73551;-3.8525e-002
130.1;20.00206; 99.73159;-3.9886e-002
130.6;20.10207; 99.72752;-4.1612e-002
131.1;20.20208; 99.72327;-4.3426e-002
131.6;20.30209; 99.71883;-4.5260e-002
132.1;20.40210; 99.71422;-4.7142e-002
132.6;20.50211; 99.70940;-4.9197e-002
133.1;20.60212; 99.70438;-5.1423e-002
133.6;20.70214; 99.69911;-5.3978e-002
134.1;20.80214; 99.69358;-5.6542e-002
134.6;20.90215; 99.68780;-5.8900e-002
135.1;21.00217; 99.68180;-6.1061e-002
135.6;21.10218; 99.67559;-6.3328e-002
136.1;21.20219; 99.66913;-6.6044e-002
136.6;21.30220; 99.66236;-6.9695e-002
137.1;21.40221; 99.65517;-7.4381e-002
137.6;21.50222; 99.64747;-7.9771e-002
138.1;21.60223; 99.63921;-8.5133e-002
138.6;21.70224; 99.63046;-8.9477e-002
139.1;21.80225; 99.62135;-9.2038e-002
139.6;21.90226; 99.61208;-9.2703e-002
140.1;22.00227; 99.60283;-9.1743e-002
140.6;22.10228; 99.59374;-8.9992e-002
141.1;22.20229; 99.58483;-8.8421e-002
141.6;22.30230; 99.57604;-8.7673e-002
142.1;22.40231; 99.56727;-8.8082e-002
142.6;22.50232; 99.55841;-8.9527e-002
143.1;22.60233; 99.54936;-9.1674e-002
143.6;22.70234; 99.54006;-9.4367e-002
144.1;22.80235; 99.53047;-9.7884e-002
144.6;22.90236; 99.52047;    -0.10243
145.1;23.00237; 99.50995;    -0.10827
145.6;23.10238; 99.49879;    -0.11526
146.1;23.20239; 99.48688;    -0.12299
146.6;23.30240; 99.47419;    -0.13063
147.1;23.40241; 99.46077;    -0.13754
147.6;23.50242; 99.44670;    -0.14333
148.1;23.60243; 99.43212;    -0.14806
148.6;23.70244; 99.41710;    -0.15226
149.1;23.80245; 99.40166;    -0.15654
149.6;23.90246; 99.38578;    -0.16131
150.1;24.00247; 99.36938;    -0.16673
150.6;24.10249; 99.35242;    -0.17250
151.1;24.20250; 99.33488;    -0.17836
151.6;24.30250; 99.31675;    -0.18413
152.1;24.40252; 99.29805;    -0.18989
152.6;24.50253; 99.27876;    -0.19591
153.1;24.60254; 99.25885;    -0.20250
153.6;24.70255; 99.23825;    -0.20983
154.1;24.80256; 99.21687;    -0.21785
154.6;24.90257; 99.19467;    -0.22626
155.1;25.00258; 99.17161;    -0.23483
155.6;25.10259; 99.14769;    -0.24343
156.1;25.20260; 99.12292;    -0.25207
156.6;25.30261; 99.09727;    -0.26088
157.1;25.40262; 99.07073;    -0.26982
157.6;25.50263; 99.04331;    -0.27866
158.1;25.60264; 99.01500;    -0.28726
158.6;25.70265; 98.98586;    -0.29535
159.1;25.80266; 98.95593;    -0.30291
159.6;25.90267; 98.92528;    -0.31002
160.1;26.00268; 98.89393;    -0.31690
160.6;26.10269; 98.86189;    -0.32383
161.1;26.20270; 98.82915;    -0.33096
161.6;26.30271; 98.79568;    -0.33854
162.1;26.40272; 98.76142;    -0.34676
162.6;26.50273; 98.72631;    -0.35582
163.1;26.60274; 98.69023;    -0.36592
163.6;26.70275; 98.65310;    -0.37692
164.1;26.80276; 98.61483;    -0.38878
164.6;26.90277; 98.57532;    -0.40150
165.1;27.00278; 98.53451;    -0.41478
165.6;27.10279; 98.49235;    -0.42865
166.1;27.20281; 98.44876;    -0.44304
166.6;27.30281; 98.40373;    -0.45750
167.1;27.40283; 98.35726;    -0.47187
167.6;27.50284; 98.30936;    -0.48573
168.1;27.60285; 98.26011;    -0.49899
168.6;27.70286; 98.20956;    -0.51198
169.1;27.80287; 98.15770;    -0.52531
169.6;27.90288; 98.10446;    -0.53970
170.1;28.00289; 98.04972;    -0.55547
170.6;28.10290; 97.99334;    -0.57246
171.1;28.20291; 97.93522;    -0.58955
171.6;28.30292; 97.87543;    -0.60568
172.1;28.40293; 97.81410;    -0.62017
172.6;28.50294; 97.75142;    -0.63250
173.1;28.60295; 97.68761;    -0.64347
173.6;28.70296; 97.62271;    -0.65467
174.1;28.80297; 97.55663;    -0.66758
174.6;28.90298; 97.48913;    -0.68355
175.1;29.00299; 97.41984;    -0.70305
175.6;29.10300; 97.34847;    -0.72456
176.1;29.20301; 97.27491;    -0.74665
176.6;29.30302; 97.19914;    -0.76796
177.1;29.40303; 97.12133;    -0.78760
177.6;29.50304; 97.04164;    -0.80572
178.1;29.60305; 96.96017;    -0.82356
178.6;29.70306; 96.87689;    -0.84212
179.1;29.80307; 96.79172;    -0.86136
179.6;29.90308; 96.70460;    -0.88060
180.1;30.00309; 96.61559;    -0.89909
180.6;30.10310; 96.52478;    -0.91680
181.1;30.20311; 96.43221;    -0.93471
181.6;30.30312; 96.33781;    -0.95369
182.1;30.40313; 96.24141;    -0.97474
182.6;30.50314; 96.14280;    -0.99767
183.1;30.60316; 96.04184;    -1.02168
183.6;30.70317; 95.93847;    -1.04505
184.1;30.80318; 95.83283;    -1.06708
184.6;30.90319; 95.72504;    -1.08851
185.1;31.00320; 95.61508;    -1.11141
185.6;31.10321; 95.50268;    -1.13771
186.1;31.20322; 95.38745;    -1.16771
186.6;31.30323; 95.26906;    -1.20027
187.1;31.40324; 95.14735;    -1.23340
187.6;31.50325; 95.02239;    -1.26484
188.1;31.60326; 94.89441;    -1.29347
188.6;31.70327; 94.76373;    -1.31906
189.1;31.80328; 94.63057;    -1.34406
189.6;31.90329; 94.49489;    -1.36959
190.1;32.00330; 94.35659;    -1.39704
190.6;32.10331; 94.21541;    -1.42659
191.1;32.20332; 94.07124;    -1.45652
191.6;32.30333; 93.92407;    -1.48601
192.1;32.40334; 93.77405;    -1.51333
192.6;32.50335; 93.62141;    -1.53817
193.1;32.60336; 93.46643;    -1.56063
193.6;32.70337; 93.30929;    -1.58118
194.1;32.80338; 93.15018;    -1.60083
194.6;32.90339; 92.98906;    -1.62183
195.1;33.00340; 92.82574;    -1.64510
195.6;33.10341; 92.65996;    -1.67161
196.1;33.20342; 92.49131;    -1.70228
196.6;33.30343; 92.31941;    -1.73633
197.1;33.40345; 92.14398;    -1.77217
197.6;33.50345; 91.96495;    -1.80734
198.1;33.60346; 91.78251;    -1.83994
198.6;33.70348; 91.59699;    -1.86897
199.1;33.80348; 91.40877;    -1.89335
199.6;33.90350; 91.21835;    -1.91267
200.1;34.00351; 91.02630;    -1.92614
200.6;34.10351; 90.83315;    -1.93564
201.1;34.20353; 90.63919;    -1.94151
201.6;34.30354; 90.44487;    -1.94378
202.1;34.40355; 90.25045;    -1.94373
202.6;34.50356; 90.05609;    -1.94230
203.1;34.60357; 89.86202;    -1.93753
203.6;34.70358; 89.66860;    -1.92866
204.1;34.80359; 89.47638;    -1.91224
204.6;34.90360; 89.28628;    -1.88570
205.1;35.00361; 89.09941;    -1.84681
205.6;35.10362; 88.91716;    -1.79193
206.1;35.20363; 88.74130;    -1.71818
206.6;35.30364; 88.57385;    -1.62319
207.1;35.40365; 88.41701;    -1.50586
207.6;35.50366; 88.27301;    -1.36714
208.1;35.60367; 88.14385;    -1.21106
208.6;35.70368; 88.03099;    -1.04334
209.1;35.80369; 87.93518;    -0.87378
209.6;35.90370; 87.85609;    -0.71139
210.1;36.00371; 87.79264;    -0.56353
210.6;36.10372; 87.74304;    -0.43578
211.1;36.20373; 87.70506;    -0.33169
211.6;36.30374; 87.67630;    -0.25067
212.1;36.40375; 87.65459;    -0.18936
212.6;36.50376; 87.63813;    -0.14497
213.1;36.60377; 87.62537;    -0.11391
213.6;36.70379; 87.61520;-9.1969e-002
214.1;36.80379; 87.60686;-7.6442e-002
214.6;36.90381; 87.59984;-6.5105e-002
215.1;37.00382; 87.59380;-5.6208e-002
215.6;37.10382; 87.58857;-4.9037e-002
216.1;37.20384; 87.58397;-4.3216e-002
216.6;37.30385; 87.57990;-3.8452e-002
217.1;37.40386; 87.57626;-3.4653e-002
217.6;37.50387; 87.57296;-3.1540e-002
218.1;37.60388; 87.56996;-2.8377e-002
218.6;37.70389; 87.56729;-2.4651e-002
219.1;37.80390; 87.56504;-2.0114e-002
219.6;37.90391; 87.56327;-1.5219e-002
220.1;38.00392; 87.56200;-1.0405e-002
220.6;38.10393; 87.56118;-6.0654e-003
221.1;38.20394; 87.56077;-2.4631e-003
221.6;38.30395; 87.56068; 1.6864e-004
222.1;38.40396; 87.56078; 1.4510e-003
222.6;38.50397; 87.56094; 1.2080e-003
223.1;38.60398; 87.56099;-7.8915e-004
223.6;38.70399; 87.56076;-4.2970e-003
224.1;38.80400; 87.56011;-8.8229e-003
224.6;38.90401; 87.55899;-1.3448e-002
225.1;39.00402; 87.55744;-1.7081e-002
225.6;39.10403; 87.55560;-1.9133e-002
226.1;39.20404; 87.55364;-1.9482e-002
226.6;39.30405; 87.55173;-1.8272e-002
227.1;39.40406; 87.55001;-1.5906e-002
227.6;39.50407; 87.54856;-1.2918e-002
228.1;39.60408; 87.54742;-1.0060e-002
228.6;39.70409; 87.54654;-7.8049e-003
229.1;39.80410; 87.54584;-6.7372e-003
229.6;39.90412; 87.54517;-6.8883e-003
230.1;40.00412; 87.54444;-7.9584e-003
230.6;40.10413; 87.54358;-9.3951e-003
231.1;40.20415; 87.54257;-1.0491e-002
231.6;40.30415; 87.54149;-1.0830e-002
232.1;40.40417; 87.54042;-1.0472e-002
232.6;40.50418; 87.53941;-9.5804e-003
233.1;40.60418; 87.53851;-8.4095e-003
233.6;40.70420; 87.53772;-7.2438e-003
234.1;40.80421; 87.53706;-5.9170e-003
234.6;40.90422; 87.53655;-4.1245e-003
235.1;41.00423; 87.53625;-1.4622e-003
235.6;41.10424; 87.53627; 1.9941e-003
236.1;41.20425; 87.53665; 5.6641e-003
236.6;41.30426; 87.53739; 8.8992e-003
237.1;41.40427; 87.53841; 1.0778e-002
237.6;41.50428; 87.53952; 1.0687e-002
238.1;41.60429; 87.54051; 8.5939e-003
238.6;41.70430; 87.54121; 4.8805e-003
239.1;41.80431; 87.54148; 4.6976e-004
239.6;41.90432; 87.54130;-3.9268e-003
240.1;42.00433; 87.54071;-7.4412e-003
240.6;42.10434; 87.53984;-9.4736e-003
241.1;42.20435; 87.53883;-1.0074e-002
241.6;42.30436; 87.53785;-9.1978e-003
242.1;42.40437; 87.53701;-7.2432e-003
242.6;42.50438; 87.53641;-4.8196e-003
243.1;42.60439; 87.53605;-2.2120e-003
243.6;42.70440; 87.53596; 3.6662e-004
244.1;42.80441; 87.53612; 2.7768e-003
244.6;42.90442; 87.53652; 4.9967e-003
245.1;43.00443; 87.53712; 6.9415e-003
245.6;43.10444; 87.53790; 8.4941e-003
246.1;43.20446; 87.53880; 9.1290e-003
246.6;43.30446; 87.53970; 8.2883e-003
247.1;43.40448; 87.54043; 5.7783e-003
247.6;43.50449; 87.54083; 1.8032e-003
248.1;43.60449; 87.54078;-3.0150e-003
248.6;43.70451; 87.54022;-7.9077e-003
249.1;43.80452; 87.53921;-1.1934e-002
249.6;43.90453; 87.53786;-1.4407e-002
250.1;44.00454; 87.53636;-1.5009e-002
250.6;44.10455; 87.53489;-1.3700e-002
251.1;44.20456; 87.53365;-1.0793e-002
251.6;44.30457; 87.53275;-6.8599e-003
252.1;44.40458; 87.53228;-2.5968e-003
252.6;44.50459; 87.53223; 1.2851e-003
253.1;44.60460; 87.53252; 3.9966e-003
253.6;44.70461; 87.53300; 5.2298e-003
254.1;44.80462; 87.53354; 5.1991e-003
254.6;44.90463; 87.53402; 4.1009e-003
255.1;45.00464; 87.53435; 2.4853e-003
255.6;45.10465; 87.53452; 8.3233e-004
256.1;45.20466; 87.53452;-6.6061e-004
256.6;45.30467; 87.53440;-1.7212e-003
257.1;45.40468; 87.53418;-2.5614e-003
257.6;45.50469; 87.53389;-3.3655e-003
258.1;45.60470; 87.53350;-4.3761e-003
258.6;45.70471; 87.53300;-6.0417e-003
259.1;45.80472; 87.53228;-8.7471e-003
259.6;45.90473; 87.53123;-1.2451e-002
260.1;46.00474; 87.52978;-1.6613e-002
260.6;46.10475; 87.52792;-2.0301e-002
261.1;46.20476; 87.52574;-2.2614e-002
261.6;46.30477; 87.52343;-2.2783e-002
262.1;46.40479; 87.52122;-2.0578e-002
262.6;46.50479; 87.51936;-1.6125e-002
263.1;46.60480; 87.51802;-1.0289e-002
263.6;46.70482; 87.51730;-4.2792e-003
264.1;46.80482; 87.51716; 1.0739e-003
264.6;46.90484; 87.51749; 5.1140e-003
265.1;47.00485; 87.51815; 7.5576e-003
265.6;47.10485; 87.51898; 8.8613e-003
266.1;47.20487; 87.51992; 9.7019e-003
266.6;47.30488; 87.52092; 1.0616e-002
267.1;47.40489; 87.52205; 1.2075e-002
267.6;47.50490; 87.52334; 1.3602e-002
268.1;47.60491; 87.52476; 1.4502e-002
268.6;47.70492; 87.52622; 1.4002e-002
269.1;47.80493; 87.52753; 1.1765e-002
269.6;47.90494; 87.52854; 7.8809e-003
270.1;48.00495; 87.52909; 3.0802e-003
270.6;48.10496; 87.52917;-1.2641e-003
271.1;48.20497; 87.52886;-4.1663e-003
271.6;48.30498; 87.52837;-5.1445e-003
272.1;48.40499; 87.52786;-4.5945e-003
272.6;48.50500; 87.52746;-3.3758e-003
273.1;48.60501; 87.52718;-2.3532e-003
273.6;48.70502; 87.52697;-2.5036e-003
274.1;48.80503; 87.52666;-4.1065e-003
274.6;48.90504; 87.52612;-6.8802e-003
275.1;49.00505; 87.52528;-9.9318e-003
275.6;49.10506; 87.52414;-1.2596e-002
276.1;49.20507; 87.52278;-1.4110e-002
276.6;49.30508; 87.52135;-1.4037e-002
277.1;49.40509; 87.52000;-1.2406e-002
277.6;49.50510; 87.51889;-9.6138e-003
278.1;49.60511; 87.51808;-6.4506e-003
278.6;49.70513; 87.51759;-3.8203e-003
279.1;49.80513; 87.51730;-2.3861e-003
279.6;49.90515; 87.51709;-2.2280e-003
280.1;50.00516; 87.51683;-3.0829e-003
280.6;50.10516; 87.51647;-4.2123e-003
281.1;50.20518; 87.51600;-4.8657e-003
281.6;50.30519; 87.51551;-4.4820e-003
282.1;50.40520; 87.51512;-2.9743e-003
282.6;50.50521; 87.51493;-5.8085e-004
283.1;50.60522; 87.51501; 2.2417e-003
283.6;50.70523; 87.51537; 4.7228e-003
284.1;50.80524; 87.51594; 6.2024e-003
284.6;50.90525; 87.51659; 6.0188e-003
285.1;51.00526; 87.51711; 3.7491e-003
285.6;51.10527; 87.51731;-2.7168e-004
286.1;51.20528; 87.51703;-5.5358e-003
286.6;51.30529; 87.51620;-1.0757e-002
287.1;51.40530; 87.51490;-1.4555e-002
287.6;51.50531; 87.51333;-1.5917e-002
288.1;51.60532; 87.51177;-1.4465e-002
288.6;51.70533; 87.51048;-1.0580e-002
289.1;51.80534; 87.50968;-5.2753e-003
289.6;51.90535; 87.50943; 1.3000e-004
290.1;52.00536; 87.50968; 4.2407e-003
290.6;52.10537; 87.51024; 6.3428e-003
291.1;52.20538; 87.51091; 6.3307e-003
291.6;52.30539; 87.51148; 4.3690e-003
292.1;52.40540; 87.51176; 8.3983e-004
292.6;52.50541; 87.51163;-3.7178e-003
293.1;52.60542; 87.51101;-8.6189e-003
293.6;52.70543; 87.50991;-1.3047e-002
294.1;52.80544; 87.50842;-1.6136e-002
294.6;52.90546; 87.50672;-1.7177e-002
295.1;53.00547; 87.50503;-1.5866e-002
295.6;53.10547; 87.50358;-1.2403e-002
296.1;53.20549; 87.50257;-7.4565e-003
296.6;53.30550; 87.50210;-2.1254e-003
297.1;53.40551; 87.50214; 2.6258e-003
297.6;53.50552; 87.50260; 6.0382e-003
298.1;53.60552; 87.50331; 7.5617e-003
298.6;53.70554; 87.50408; 7.2062e-003
299.1;53.80555; 87.50472; 4.9917e-003
299.6;53.90556; 87.50506; 1.4928e-003