File: thermodynamics/5capacity/ExpDat_03882_Sapp-12.69mg-0.25mm_-30-180_10_Ar-20-.csv
#EXPORTTYPE:                 ,DATA SINGLE
#FILE:                       ,03882_Sapp-12.69mg-0.25mm_-30-180_10_Ar-20-70_03.04.12.dd3
#FORMAT:                     ,NETZSCH5
#FTYPE:                      ,ASCII
#IDENTITY:                   ,03882
#DECIMAL:                    ,POINT
#SEPARATOR:                  ,COMMA
#MTYPE:                      ,DSC
#INSTRUMENT:                 ,NETZSCH DSC 204F1
#PROJECT:                    ,'??<R?¿?Raai
#DATE/TIME:                  ,03-Apr-12 6:16:04 PM
#CORR. FILE:                 ,03881-2_bline_-30-180_10_Ar-20-70_03.04.12.bd3
#TEMPCAL:                    ,03060_Al-pirced_10_Ar-20-70_27.01.11.td3
#SENSITIVITY:                ,Senszero.exx
#LABORATORY:                 ,'?a¿Rý?-ÿ¿???
#OPERATOR:                   ,?a?e?-?R
#REMARK:                     ,
#SAMPLE:                     ,bline
#SAMPLE MASS /mg:            ,12.6900
#MATERIAL:                   ,??a
#REFERENCE:                  ,-?a
#REFERENCE MASS /mg:         ,0.0000
#TYPE OF CRUCIBLE:           ,Pan Al, pierced lid
#SAMPLE CRUCIBLE MASS /mg:   ,0.0000
#REFERENCE CRUCIBLE MASS /mg:,0.0000
#M.RANGE /cV:                ,5000
#TAU-R:                      ,---
#CORR. CODE:                 ,000
#EXO:                        ,+1
#RANGE:                      ,-30oC....180oC/0.0....10.0K/min
#SEGMENT:                    ,S1-3/3
#SEG. 1:                     ,-30oC/00:10/-30oC
#SEG. 2:                     ,-30oC/10.0(K/min)/180oC
#SEG. 3:                     ,180oC/00:10/180oC

##Temp./oC,Time/min,DSC/uV,Sensit./(uV/mW),Segment
-29.34800, 0.00000,    -1.02377,1.00000,1
-29.59342, 0.04000,    -1.13624,1.00000,1
-29.80293, 0.08000,    -1.18001,1.00000,1
-29.94209, 0.12000,    -1.08977,1.00000,1
-30.01026, 0.16000,    -0.87887,1.00000,1
-30.04060, 0.20000,    -0.63927,1.00000,1
-30.06174, 0.24000,    -0.45445,1.00000,1
-30.07829, 0.28000,    -0.36023,1.00000,1
-30.08898, 0.32000,    -0.37892,1.00000,1
-30.09432, 0.36000,    -0.49540,1.00000,1
-30.09667, 0.40000,    -0.65717,1.00000,1
-30.09800, 0.44000,    -0.81803,1.00000,1
-30.09859, 0.48000,    -0.96347,1.00000,1
-30.09827, 0.52000,    -1.08711,1.00000,1
-30.09739, 0.56000,    -1.18661,1.00000,1
-30.09677, 0.60000,    -1.26368,1.00000,1
-30.09677, 0.64000,    -1.32052,1.00000,1
-30.09576, 0.68000,    -1.36051,1.00000,1
-30.09179, 0.72000,    -1.38731,1.00000,1
-30.08768, 0.76000,    -1.40381,1.00000,1
-30.09100, 0.80000,    -1.41215,1.00000,1
-30.10634, 0.84000,    -1.41426,1.00000,1
-30.12557, 0.88000,    -1.41143,1.00000,1
-30.13774, 0.92000,    -1.40475,1.00000,1
-30.13967, 0.96000,    -1.39486,1.00000,1
-30.13600, 1.00000,    -1.38190,1.00000,1
-30.13089, 1.04000,    -1.36645,1.00000,1
-30.12532, 1.08000,    -1.35085,1.00000,1
-30.11946, 1.12000,    -1.33774,1.00000,1
-30.11356, 1.16000,    -1.32654,1.00000,1
-30.10794, 1.20000,    -1.31342,1.00000,1
-30.10287, 1.24000,    -1.29575,1.00000,1
-30.09830, 1.28000,    -1.27617,1.00000,1
-30.09414, 1.32000,    -1.25853,1.00000,1
-30.09031, 1.36000,    -1.24416,1.00000,1
-30.08682, 1.40000,    -1.23187,1.00000,1
-30.08365, 1.44000,    -1.22046,1.00000,1
-30.08076, 1.48000,    -1.20897,1.00000,1
-30.07812, 1.52000,    -1.19659,1.00000,1
-30.07569, 1.56000,    -1.18350,1.00000,1
-30.07347, 1.60000,    -1.17092,1.00000,1
-30.07144, 1.64000,    -1.15970,1.00000,1
-30.06961, 1.68000,    -1.14900,1.00000,1
-30.06797, 1.72000,    -1.13767,1.00000,1
-30.06650, 1.76000,    -1.12606,1.00000,1
-30.06512, 1.80000,    -1.11603,1.00000,1
-30.06377, 1.84000,    -1.10879,1.00000,1
-30.06249, 1.88000,    -1.10267,1.00000,1
-30.06131, 1.92000,    -1.09535,1.00000,1
-30.06026, 1.96000,    -1.08653,1.00000,1
-30.05929, 2.00000,    -1.07794,1.00000,1
-30.05839, 2.04000,    -1.07092,1.00000,1
-30.05753, 2.08000,    -1.06490,1.00000,1
-30.05671, 2.12000,    -1.05888,1.00000,1
-30.05590, 2.16000,    -1.05247,1.00000,1
-30.05512, 2.20000,    -1.04593,1.00000,1
-30.05436, 2.24000,    -1.03936,1.00000,1
-30.05366, 2.28000,    -1.03230,1.00000,1
-30.05307, 2.32000,    -1.02418,1.00000,1
-30.05258, 2.36000,    -1.01564,1.00000,1
-30.05212, 2.40000,    -1.00858,1.00000,1
-30.05164, 2.44000,    -1.00421,1.00000,1
-30.05114, 2.48000,    -1.00078,1.00000,1
-30.05063, 2.52000,    -0.99592,1.00000,1
-30.05012, 2.56000,    -0.98929,1.00000,1
-30.04965, 2.60000,    -0.98262,1.00000,1
-30.04923, 2.64000,    -0.97726,1.00000,1
-30.04884, 2.68000,    -0.97271,1.00000,1
-30.04846, 2.72000,    -0.96806,1.00000,1
-30.04807, 2.76000,    -0.96324,1.00000,1
-30.04771, 2.80000,    -0.95900,1.00000,1
-30.04736, 2.84000,    -0.95575,1.00000,1
-30.04704, 2.88000,    -0.95223,1.00000,1
-30.04673, 2.92000,    -0.94687,1.00000,1
-30.04644, 2.96000,    -0.93984,1.00000,1
-30.04618, 3.00000,    -0.93306,1.00000,1
-30.04593, 3.04000,    -0.92808,1.00000,1
-30.04570, 3.08000,    -0.92459,1.00000,1
-30.04547, 3.12000,    -0.92185,1.00000,1
-30.04524, 3.16000,    -0.91924,1.00000,1
-30.04500, 3.20000,    -0.91627,1.00000,1
-30.04476, 3.24000,    -0.91256,1.00000,1
-30.04450, 3.28000,    -0.90811,1.00000,1
-30.04419, 3.32000,    -0.90301,1.00000,1
-30.04381, 3.36000,    -0.89779,1.00000,1
-30.04341, 3.40000,    -0.89343,1.00000,1
-30.04302, 3.44000,    -0.89055,1.00000,1
-30.04264, 3.48000,    -0.88843,1.00000,1
-30.04231, 3.52000,    -0.88602,1.00000,1
-30.04201, 3.56000,    -0.88300,1.00000,1
-30.04171, 3.60000,    -0.87971,1.00000,1
-30.04139, 3.64000,    -0.87654,1.00000,1
-30.04108, 3.68000,    -0.87387,1.00000,1
-30.04081, 3.72000,    -0.87205,1.00000,1
-30.04058, 3.76000,    -0.87061,1.00000,1
-30.04035, 3.80000,    -0.86827,1.00000,1
-30.04009, 3.84000,    -0.86421,1.00000,1
-30.03983, 3.88000,    -0.85959,1.00000,1
-30.03960, 3.92000,    -0.85599,1.00000,1
-30.03938, 3.96000,    -0.85365,1.00000,1
-30.03912, 4.00000,    -0.85149,1.00000,1
-30.03876, 4.04000,    -0.84858,1.00000,1
-30.03833, 4.08000,    -0.84503,1.00000,1
-30.03791, 4.12000,    -0.84122,1.00000,1
-30.03752, 4.16000,    -0.83775,1.00000,1
-30.03718, 4.20000,    -0.83553,1.00000,1
-30.03688, 4.24000,    -0.83504,1.00000,1
-30.03661, 4.28000,    -0.83507,1.00000,1
-30.03633, 4.32000,    -0.83405,1.00000,1
-30.03603, 4.36000,    -0.83178,1.00000,1
-30.03571, 4.40000,    -0.82943,1.00000,1
-30.03536, 4.44000,    -0.82786,1.00000,1
-30.03500, 4.48000,    -0.82651,1.00000,1
-30.03465, 4.52000,    -0.82445,1.00000,1
-30.03432, 4.56000,    -0.82130,1.00000,1
-30.03400, 4.60000,    -0.81720,1.00000,1
-30.03367, 4.64000,    -0.81248,1.00000,1
-30.03334, 4.68000,    -0.80816,1.00000,1
-30.03301, 4.72000,    -0.80538,1.00000,1
-30.03266, 4.76000,    -0.80417,1.00000,1
-30.03229, 4.80000,    -0.80349,1.00000,1
-30.03191, 4.84000,    -0.80237,1.00000,1
-30.03153, 4.88000,    -0.80037,1.00000,1
-30.03119, 4.92000,    -0.79721,1.00000,1
-30.03089, 4.96000,    -0.79348,1.00000,1
-30.03065, 5.00000,    -0.79058,1.00000,1
-30.03044, 5.04000,    -0.78953,1.00000,1
-30.03023, 5.08000,    -0.78964,1.00000,1
-30.03000, 5.12000,    -0.78982,1.00000,1
-30.02973, 5.16000,    -0.78942,1.00000,1
-30.02947, 5.20000,    -0.78826,1.00000,1
-30.02923, 5.24000,    -0.78636,1.00000,1
-30.02900, 5.28000,    -0.78443,1.00000,1
-30.02876, 5.32000,    -0.78329,1.00000,1
-30.02849, 5.36000,    -0.78272,1.00000,1
-30.02818, 5.40000,    -0.78143,1.00000,1
-30.02783, 5.44000,    -0.77853,1.00000,1
-30.02747, 5.48000,    -0.77482,1.00000,1
-30.02713, 5.52000,    -0.77149,1.00000,1
-30.02683, 5.56000,    -0.76914,1.00000,1
-30.02653, 5.60000,    -0.76770,1.00000,1
-30.02623, 5.64000,    -0.76700,1.00000,1
-30.02592, 5.68000,    -0.76653,1.00000,1
-30.02561, 5.72000,    -0.76572,1.00000,1
-30.02532, 5.76000,    -0.76462,1.00000,1
-30.02506, 5.80000,    -0.76390,1.00000,1
-30.02483, 5.84000,    -0.76392,1.00000,1
-30.02460, 5.88000,    -0.76372,1.00000,1
-30.02432, 5.92000,    -0.76208,1.00000,1
-30.02398, 5.96000,    -0.75927,1.00000,1
-30.02365, 6.00000,    -0.75706,1.00000,1
-30.02337, 6.04000,    -0.75674,1.00000,1
-30.02315, 6.08000,    -0.75748,1.00000,1
-30.02297, 6.12000,    -0.75790,1.00000,1
-30.02281, 6.16000,    -0.75699,1.00000,1
-30.02265, 6.20000,    -0.75401,1.00000,1
-30.02245, 6.24000,    -0.74895,1.00000,1
-30.02223, 6.28000,    -0.74440,1.00000,1
-30.02200, 6.32000,    -0.74348,1.00000,1
-30.02174, 6.36000,    -0.74559,1.00000,1
-30.02147, 6.40000,    -0.74637,1.00000,1
-30.02119, 6.44000,    -0.74284,1.00000,1
-30.02090, 6.48000,    -0.73799,1.00000,1
-30.02063, 6.52000,    -0.73617,1.00000,1
-30.02039, 6.56000,    -0.73799,1.00000,1
-30.02018, 6.60000,    -0.74031,1.00000,1
-30.01998, 6.64000,    -0.74061,1.00000,1
-30.01980, 6.68000,    -0.73948,1.00000,1
-30.01961, 6.72000,    -0.73823,1.00000,1
-30.01940, 6.76000,    -0.73767,1.00000,1
-30.01918, 6.80000,    -0.73804,1.00000,1
-30.01895, 6.84000,    -0.73924,1.00000,1
-30.01872, 6.88000,    -0.73991,1.00000,1
-30.01845, 6.92000,    -0.73847,1.00000,1
-30.01816, 6.96000,    -0.73527,1.00000,1
-30.01788, 7.00000,    -0.73267,1.00000,1
-30.01763, 7.04000,    -0.73227,1.00000,1
-30.01741, 7.08000,    -0.73242,1.00000,1
-30.01718, 7.12000,    -0.73074,1.00000,1
-30.01694, 7.16000,    -0.72724,1.00000,1
-30.01665, 7.20000,    -0.72432,1.00000,1
-30.01630, 7.24000,    -0.72382,1.00000,1
-30.01593, 7.28000,    -0.72503,1.00000,1
-30.01562, 7.32000,    -0.72661,1.00000,1
-30.01537, 7.36000,    -0.72760,1.00000,1
-30.01518, 7.40000,    -0.72738,1.00000,1
-30.01500, 7.44000,    -0.72565,1.00000,1
-30.01484, 7.48000,    -0.72319,1.00000,1
-30.01469, 7.52000,    -0.72104,1.00000,1
-30.01454, 7.56000,    -0.71967,1.00000,1
-30.01441, 7.60000,    -0.71898,1.00000,1
-30.01431, 7.64000,    -0.71882,1.00000,1
-30.01420, 7.68000,    -0.71894,1.00000,1
-30.01401, 7.72000,    -0.71902,1.00000,1
-30.01375, 7.76000,    -0.71853,1.00000,1
-30.01347, 7.80000,    -0.71673,1.00000,1
-30.01323, 7.84000,    -0.71340,1.00000,1
-30.01303, 7.88000,    -0.71044,1.00000,1
-30.01286, 7.92000,    -0.71017,1.00000,1
-30.01272, 7.96000,    -0.71226,1.00000,1
-30.01259, 8.00000,    -0.71369,1.00000,1
-30.01243, 8.04000,    -0.71227,1.00000,1
-30.01227, 8.08000,    -0.70950,1.00000,1
-30.01209, 8.12000,    -0.70774,1.00000,1
-30.01191, 8.16000,    -0.70737,1.00000,1
-30.01176, 8.20000,    -0.70682,1.00000,1
-30.01166, 8.24000,    -0.70487,1.00000,1
-30.01155, 8.28000,    -0.70209,1.00000,1
-30.01137, 8.32000,    -0.69949,1.00000,1
-30.01112, 8.36000,    -0.69798,1.00000,1
-30.01088, 8.40000,    -0.69842,1.00000,1
-30.01073, 8.44000,    -0.70100,1.00000,1
-30.01063, 8.48000,    -0.70347,1.00000,1
-30.01055, 8.52000,    -0.70306,1.00000,1
-30.01048, 8.56000,    -0.70003,1.00000,1
-30.01041, 8.60000,    -0.69767,1.00000,1
-30.01036, 8.64000,    -0.69834,1.00000,1
-30.01032, 8.68000,    -0.70022,1.00000,1
-30.01027, 8.72000,    -0.70054,1.00000,1
-30.01023, 8.76000,    -0.69914,1.00000,1
-30.01024, 8.80000,    -0.69842,1.00000,1
-30.01031, 8.84000,    -0.69987,1.00000,1
-30.01040, 8.88000,    -0.70083,1.00000,1
-30.01040, 8.92000,    -0.69780,1.00000,1
-30.01038, 8.96000,    -0.69182,1.00000,1
-30.01053, 9.00000,    -0.68854,1.00000,1
-30.01088, 9.04000,    -0.69172,1.00000,1
-30.01086, 9.08000,    -0.69701,1.00000,1
-30.00976, 9.12000,    -0.69823,1.00000,1
-30.00798, 9.16000,    -0.69492,1.00000,1
-30.00700, 9.20000,    -0.69236,1.00000,1
-30.00783, 9.24000,    -0.69428,1.00000,1
-30.00947, 9.28000,    -0.69732,1.00000,1
-30.01048, 9.32000,    -0.69656,1.00000,1
-30.01046, 9.36000,    -0.69169,1.00000,1
-30.01008, 9.40000,    -0.68699,1.00000,1
-30.00991, 9.44000,    -0.68583,1.00000,1
-30.00995, 9.48000,    -0.68701,1.00000,1
-30.01005, 9.52000,    -0.68826,1.00000,1
-30.01013, 9.56000,    -0.68847,1.00000,1
-30.01022, 9.60000,    -0.68774,1.00000,1
-30.01033, 9.64000,    -0.68629,1.00000,1
-30.01048, 9.68000,    -0.68463,1.00000,1
-30.01068, 9.72000,    -0.68335,1.00000,1
-30.01085, 9.76000,    -0.68251,1.00000,1
-30.01080, 9.80000,    -0.68165,1.00000,1
-30.01044, 9.84000,    -0.68047,1.00000,1
-30.01007, 9.88000,    -0.67952,1.00000,1
-30.01005, 9.92000,    -0.67948,1.00000,1
-30.01024, 9.96000,    -0.67963,1.00000,1
-30.01000,10.00000,    -0.67784,1.00000,1
-29.96914,10.04000,    -0.67294,1.00000,2
-29.64131,10.08000, 5.4720e-002,1.00000,2
-29.18058,10.12000,     1.21006,1.00000,2
-28.70438,10.16000,     1.84069,1.00000,2
-28.17133,10.20000,     1.76866,1.00000,2
-27.64399,10.24000,     1.18504,1.00000,2
-27.15795,10.28000,     0.37920,1.00000,2
-26.72294,10.32000,    -0.39298,1.00000,2
-26.33144,10.36000,    -0.98515,1.00000,2
-25.96925,10.40000,    -1.35720,1.00000,2
-25.62218,10.44000,    -1.52534,1.00000,2
-25.27923,10.48000,    -1.56766,1.00000,2
-24.93441,10.52000,    -1.53273,1.00000,2
-24.58535,10.56000,    -1.46519,1.00000,2
-24.23175,10.60000,    -1.40769,1.00000,2
-23.87300,10.64000,    -1.34579,1.00000,2
-23.51020,10.68000,    -1.29734,1.00000,2
-23.14382,10.72000,    -1.26303,1.00000,2
-22.77416,10.76000,    -1.22478,1.00000,2
-22.40135,10.80000,    -1.20505,1.00000,2
-22.02540,10.84000,    -1.18809,1.00000,2
-21.64640,10.88000,    -1.18113,1.00000,2
-21.26509,10.92000,    -1.17153,1.00000,2
-20.88118,10.96000,    -1.15994,1.00000,2
-20.49513,11.00000,    -1.16169,1.00000,2
-20.10679,11.04000,    -1.15522,1.00000,2
-19.71653,11.08000,    -1.16573,1.00000,2
-19.32467,11.12000,    -1.15732,1.00000,2
-18.93134,11.16000,    -1.16078,1.00000,2
-18.53653,11.20000,    -1.17169,1.00000,2
-18.14046,11.24000,    -1.17576,1.00000,2
-17.74352,11.28000,    -1.18122,1.00000,2
-17.34546,11.32000,    -1.18180,1.00000,2
-16.94635,11.36000,    -1.18572,1.00000,2
-16.54629,11.40000,    -1.19096,1.00000,2
-16.14547,11.44000,    -1.19295,1.00000,2
-15.74395,11.48000,    -1.20119,1.00000,2
-15.34199,11.52000,    -1.19654,1.00000,2
-14.93912,11.56000,    -1.20092,1.00000,2
-14.53632,11.60000,    -1.20732,1.00000,2
-14.13313,11.64000,    -1.21397,1.00000,2
-13.72951,11.68000,    -1.21593,1.00000,2
-13.32548,11.72000,    -1.21405,1.00000,2
-12.92149,11.76000,    -1.21884,1.00000,2
-12.51723,11.80000,    -1.21834,1.00000,2
-12.11226,11.84000,    -1.23056,1.00000,2
-11.70743,11.88000,    -1.22726,1.00000,2
-11.30262,11.92000,    -1.22418,1.00000,2
-10.89749,11.96000,    -1.22701,1.00000,2
-10.49218,12.00000,    -1.22903,1.00000,2
-10.08716,12.04000,    -1.23984,1.00000,2
 -9.68199,12.08000,    -1.23793,1.00000,2
 -9.27669,12.12000,    -1.23678,1.00000,2
 -8.87153,12.16000,    -1.24208,1.00000,2
 -8.46653,12.20000,    -1.24656,1.00000,2
 -8.06121,12.24000,    -1.23707,1.00000,2
 -7.65581,12.28000,    -1.24664,1.00000,2
 -7.25052,12.32000,    -1.24139,1.00000,2
 -6.84486,12.36000,    -1.24639,1.00000,2
 -6.43921,12.40000,    -1.24741,1.00000,2
 -6.03378,12.44000,    -1.25676,1.00000,2
 -5.62837,12.48000,    -1.24994,1.00000,2
 -5.22318,12.52000,    -1.25787,1.00000,2
 -4.81772,12.56000,    -1.26300,1.00000,2
 -4.41241,12.60000,    -1.26601,1.00000,2
 -4.00723,12.64000,    -1.26371,1.00000,2
 -3.60217,12.68000,    -1.26755,1.00000,2
 -3.19730,12.72000,    -1.27395,1.00000,2
 -2.79262,12.76000,    -1.27312,1.00000,2
 -2.38800,12.80000,    -1.26884,1.00000,2
 -1.98324,12.84000,    -1.27451,1.00000,2
 -1.57817,12.88000,    -1.27757,1.00000,2
 -1.17322,12.92000,    -1.28027,1.00000,2
 -0.76856,12.96000,    -1.28580,1.00000,2
 -0.36402,13.00000,    -1.28802,1.00000,2
  0.04049,13.04000,    -1.29066,1.00000,2
  0.44481,13.08000,    -1.29658,1.00000,2
  0.84883,13.12000,    -1.30173,1.00000,2
  1.25309,13.16000,    -1.30312,1.00000,2
  1.65730,13.20000,    -1.30912,1.00000,2
  2.06173,13.24000,    -1.31313,1.00000,2
  2.46609,13.28000,    -1.31057,1.00000,2
  2.87032,13.32000,    -1.31275,1.00000,2
  3.27461,13.36000,    -1.31854,1.00000,2
  3.67899,13.40000,    -1.32807,1.00000,2
  4.08291,13.44000,    -1.33313,1.00000,2
  4.48656,13.48000,    -1.33472,1.00000,2
  4.89019,13.52000,    -1.33763,1.00000,2
  5.29368,13.56000,    -1.33982,1.00000,2
  5.69706,13.60000,    -1.34949,1.00000,2
  6.10031,13.64000,    -1.34816,1.00000,2
  6.50374,13.68000,    -1.34352,1.00000,2
  6.90687,13.72000,    -1.34938,1.00000,2
  7.31035,13.76000,    -1.35149,1.00000,2
  7.71391,13.80000,    -1.35763,1.00000,2
  8.11726,13.84000,    -1.36131,1.00000,2
  8.52053,13.88000,    -1.36418,1.00000,2
  8.92400,13.92000,    -1.36951,1.00000,2
  9.32702,13.96000,    -1.37093,1.00000,2
  9.72998,14.00000,    -1.37993,1.00000,2
 10.13301,14.04000,    -1.37523,1.00000,2
 10.53608,14.08000,    -1.38110,1.00000,2
 10.93891,14.12000,    -1.37617,1.00000,2
 11.34185,14.16000,    -1.38613,1.00000,2
 11.74466,14.20000,    -1.39563,1.00000,2
 12.14776,14.24000,    -1.39881,1.00000,2
 12.55056,14.28000,    -1.39625,1.00000,2
 12.95311,14.32000,    -1.39999,1.00000,2
 13.35588,14.36000,    -1.40082,1.00000,2
 13.75865,14.40000,    -1.41635,1.00000,2
 14.16140,14.44000,    -1.41366,1.00000,2
 14.56389,14.48000,    -1.41185,1.00000,2
 14.96653,14.52000,    -1.42046,1.00000,2
 15.36889,14.56000,    -1.42341,1.00000,2
 15.77089,14.60000,    -1.43026,1.00000,2
 16.17274,14.64000,    -1.43446,1.00000,2
 16.57472,14.68000,    -1.44206,1.00000,2
 16.97664,14.72000,    -1.43975,1.00000,2
 17.37849,14.76000,    -1.44755,1.00000,2
 17.78067,14.80000,    -1.45085,1.00000,2
 18.18257,14.84000,    -1.45622,1.00000,2
 18.58448,14.88000,    -1.46025,1.00000,2
 18.98620,14.92000,    -1.46377,1.00000,2
 19.38812,14.96000,    -1.47034,1.00000,2
 19.79000,15.00000,    -1.47187,1.00000,2
 20.19203,15.04000,    -1.46841,1.00000,2
 20.59370,15.08000,    -1.47990,1.00000,2
 20.99545,15.12000,    -1.48430,1.00000,2
 21.39724,15.16000,    -1.49105,1.00000,2
 21.79899,15.20000,    -1.49160,1.00000,2
 22.20064,15.24000,    -1.49948,1.00000,2
 22.60244,15.28000,    -1.51478,1.00000,2
 23.00426,15.32000,    -1.50510,1.00000,2
 23.40608,15.36000,    -1.51011,1.00000,2
 23.80795,15.40000,    -1.51267,1.00000,2
 24.20969,15.44000,    -1.51880,1.00000,2
 24.61125,15.48000,    -1.52457,1.00000,2
 25.01281,15.52000,    -1.53412,1.00000,2
 25.41421,15.56000,    -1.53686,1.00000,2
 25.81542,15.60000,    -1.53288,1.00000,2
 26.21687,15.64000,    -1.53658,1.00000,2
 26.61830,15.68000,    -1.54902,1.00000,2
 27.01987,15.72000,    -1.53837,1.00000,2
 27.42137,15.76000,    -1.54416,1.00000,2
 27.82294,15.80000,    -1.55649,1.00000,2
 28.22418,15.84000,    -1.56971,1.00000,2
 28.62567,15.88000,    -1.57069,1.00000,2
 29.02723,15.92000,    -1.57063,1.00000,2
 29.42849,15.96000,    -1.57103,1.00000,2
 29.82944,16.00000,    -1.57844,1.00000,2
 30.23053,16.04000,    -1.58224,1.00000,2
 30.63166,16.08000,    -1.59076,1.00000,2
 31.03247,16.12000,    -1.58750,1.00000,2
 31.43330,16.16000,    -1.60102,1.00000,2
 31.83439,16.20000,    -1.59336,1.00000,2
 32.23574,16.24000,    -1.60862,1.00000,2
 32.63688,16.28000,    -1.60891,1.00000,2
 33.03789,16.32000,    -1.60760,1.00000,2
 33.43890,16.36000,    -1.61836,1.00000,2
 33.83990,16.40000,    -1.61818,1.00000,2
 34.24069,16.44000,    -1.62802,1.00000,2
 34.64152,16.48000,    -1.63590,1.00000,2
 35.04230,16.52000,    -1.63543,1.00000,2
 35.44322,16.56000,    -1.63877,1.00000,2
 35.84394,16.60000,    -1.64335,1.00000,2
 36.24468,16.64000,    -1.64452,1.00000,2
 36.64549,16.68000,    -1.64933,1.00000,2
 37.04595,16.72000,    -1.65138,1.00000,2
 37.44652,16.76000,    -1.65937,1.00000,2
 37.84700,16.80000,    -1.65973,1.00000,2
 38.24757,16.84000,    -1.67203,1.00000,2
 38.64806,16.88000,    -1.67736,1.00000,2
 39.04844,16.92000,    -1.68072,1.00000,2
 39.44919,16.96000,    -1.68172,1.00000,2
 39.84986,17.00000,    -1.68438,1.00000,2
 40.25079,17.04000,    -1.69167,1.00000,2
 40.65164,17.08000,    -1.69397,1.00000,2
 41.05229,17.12000,    -1.69481,1.00000,2
 41.45292,17.16000,    -1.69803,1.00000,2
 41.85326,17.20000,    -1.70928,1.00000,2
 42.25361,17.24000,    -1.70930,1.00000,2
 42.65405,17.28000,    -1.71414,1.00000,2
 43.05488,17.32000,    -1.71616,1.00000,2
 43.45564,17.36000,    -1.72595,1.00000,2
 43.85651,17.40000,    -1.72689,1.00000,2
 44.25767,17.44000,    -1.73527,1.00000,2
 44.65842,17.48000,    -1.74031,1.00000,2
 45.05917,17.52000,    -1.74018,1.00000,2
 45.46010,17.56000,    -1.73850,1.00000,2
 45.86090,17.60000,    -1.75003,1.00000,2
 46.26179,17.64000,    -1.75952,1.00000,2
 46.66225,17.68000,    -1.76834,1.00000,2
 47.06252,17.72000,    -1.75757,1.00000,2
 47.46290,17.76000,    -1.76789,1.00000,2
 47.86347,17.80000,    -1.77143,1.00000,2
 48.26375,17.84000,    -1.77241,1.00000,2
 48.66442,17.88000,    -1.77808,1.00000,2
 49.06497,17.92000,    -1.78088,1.00000,2
 49.46561,17.96000,    -1.78101,1.00000,2
 49.86629,18.00000,    -1.79096,1.00000,2
 50.26725,18.04000,    -1.79447,1.00000,2
 50.66800,18.08000,    -1.79303,1.00000,2
 51.06845,18.12000,    -1.79440,1.00000,2
 51.46922,18.16000,    -1.80587,1.00000,2
 51.86962,18.20000,    -1.81306,1.00000,2
 52.26972,18.24000,    -1.81862,1.00000,2
 52.66980,18.28000,    -1.81985,1.00000,2
 53.07027,18.32000,    -1.82646,1.00000,2
 53.47048,18.36000,    -1.83372,1.00000,2
 53.87082,18.40000,    -1.83740,1.00000,2
 54.27114,18.44000,    -1.83416,1.00000,2
 54.67169,18.48000,    -1.83802,1.00000,2
 55.07202,18.52000,    -1.83336,1.00000,2
 55.47270,18.56000,    -1.84522,1.00000,2
 55.87333,18.60000,    -1.85104,1.00000,2
 56.27389,18.64000,    -1.85874,1.00000,2
 56.67429,18.68000,    -1.85713,1.00000,2
 57.07472,18.72000,    -1.85985,1.00000,2
 57.47479,18.76000,    -1.87455,1.00000,2
 57.87493,18.80000,    -1.87749,1.00000,2
 58.27543,18.84000,    -1.87469,1.00000,2
 58.67579,18.88000,    -1.87912,1.00000,2
 59.07610,18.92000,    -1.88406,1.00000,2
 59.47660,18.96000,    -1.88763,1.00000,2
 59.87699,19.00000,    -1.89713,1.00000,2
 60.27723,19.04000,    -1.89916,1.00000,2
 60.67771,19.08000,    -1.90684,1.00000,2
 61.07783,19.12000,    -1.90023,1.00000,2
 61.47815,19.16000,    -1.91525,1.00000,2
 61.87851,19.20000,    -1.91428,1.00000,2
 62.27893,19.24000,    -1.91380,1.00000,2
 62.67909,19.28000,    -1.92135,1.00000,2
 63.07992,19.32000,    -1.92224,1.00000,2
 63.48053,19.36000,    -1.92787,1.00000,2
 63.88097,19.40000,    -1.93843,1.00000,2
 64.28162,19.44000,    -1.94363,1.00000,2
 64.68234,19.48000,    -1.93465,1.00000,2
 65.08256,19.52000,    -1.94404,1.00000,2
 65.48284,19.56000,    -1.94928,1.00000,2
 65.88306,19.60000,    -1.95425,1.00000,2
 66.28332,19.64000,    -1.95792,1.00000,2
 66.68321,19.68000,    -1.96517,1.00000,2
 67.08341,19.72000,    -1.96822,1.00000,2
 67.48350,19.76000,    -1.97560,1.00000,2
 67.88393,19.80000,    -1.97034,1.00000,2
 68.28436,19.84000,    -1.96827,1.00000,2
 68.68490,19.88000,    -1.97618,1.00000,2
 69.08544,19.92000,    -1.98523,1.00000,2
 69.48625,19.96000,    -1.98176,1.00000,2
 69.88645,20.00000,    -1.99571,1.00000,2
 70.28690,20.04000,    -1.99688,1.00000,2
 70.68743,20.08000,    -1.99883,1.00000,2
 71.08784,20.12000,    -1.99841,1.00000,2
 71.48804,20.16000,    -2.01130,1.00000,2
 71.88838,20.20000,    -2.01331,1.00000,2
 72.28926,20.24000,    -2.01228,1.00000,2
 72.68978,20.28000,    -2.01546,1.00000,2
 73.09016,20.32000,    -2.02429,1.00000,2
 73.49023,20.36000,    -2.01567,1.00000,2
 73.88993,20.40000,    -2.02440,1.00000,2
 74.28928,20.44000,    -2.02167,1.00000,2
 74.68839,20.48000,    -2.03790,1.00000,2
 75.08772,20.52000,    -2.03065,1.00000,2
 75.48807,20.56000,    -2.03335,1.00000,2
 75.88867,20.60000,    -2.03555,1.00000,2
 76.28926,20.64000,    -2.04982,1.00000,2
 76.68994,20.68000,    -2.05970,1.00000,2
 77.09041,20.72000,    -2.06140,1.00000,2
 77.49037,20.76000,    -2.06015,1.00000,2
 77.89044,20.80000,    -2.07037,1.00000,2
 78.29059,20.84000,    -2.07233,1.00000,2
 78.69075,20.88000,    -2.08420,1.00000,2
 79.09098,20.92000,    -2.07807,1.00000,2
 79.49133,20.96000,    -2.08557,1.00000,2
 79.89164,21.00000,    -2.08310,1.00000,2
 80.29201,21.04000,    -2.09428,1.00000,2
 80.69197,21.08000,    -2.10573,1.00000,2
 81.09202,21.12000,    -2.10026,1.00000,2
 81.49214,21.16000,    -2.10343,1.00000,2
 81.89205,21.20000,    -2.10153,1.00000,2
 82.29211,21.24000,    -2.11262,1.00000,2
 82.69233,21.28000,    -2.11678,1.00000,2
 83.09262,21.32000,    -2.11622,1.00000,2
 83.49286,21.36000,    -2.12180,1.00000,2
 83.89334,21.40000,    -2.11909,1.00000,2
 84.29358,21.44000,    -2.13612,1.00000,2
 84.69379,21.48000,    -2.13502,1.00000,2
 85.09396,21.52000,    -2.13423,1.00000,2
 85.49415,21.56000,    -2.14525,1.00000,2
 85.89407,21.60000,    -2.14109,1.00000,2
 86.29420,21.64000,    -2.14603,1.00000,2
 86.69435,21.68000,    -2.15123,1.00000,2
 87.09459,21.72000,    -2.15630,1.00000,2
 87.49482,21.76000,    -2.15828,1.00000,2
 87.89493,21.80000,    -2.16626,1.00000,2
 88.29517,21.84000,    -2.16919,1.00000,2
 88.69507,21.88000,    -2.17043,1.00000,2
 89.09509,21.92000,    -2.17314,1.00000,2
 89.49475,21.96000,    -2.17259,1.00000,2
 89.89468,22.00000,    -2.17095,1.00000,2
 90.29467,22.04000,    -2.18692,1.00000,2
 90.69476,22.08000,    -2.18585,1.00000,2
 91.09483,22.12000,    -2.18602,1.00000,2
 91.49530,22.16000,    -2.20151,1.00000,2
 91.89546,22.20000,    -2.19039,1.00000,2
 92.29554,22.24000,    -2.20208,1.00000,2
 92.69598,22.28000,    -2.21007,1.00000,2
 93.09623,22.32000,    -2.19684,1.00000,2
 93.49662,22.36000,    -2.20797,1.00000,2
 93.89718,22.40000,    -2.20682,1.00000,2
 94.29766,22.44000,    -2.22183,1.00000,2
 94.69808,22.48000,    -2.21356,1.00000,2
 95.09804,22.52000,    -2.21932,1.00000,2
 95.49818,22.56000,    -2.23205,1.00000,2
 95.89806,22.60000,    -2.23713,1.00000,2
 96.29823,22.64000,    -2.24731,1.00000,2
 96.69819,22.68000,    -2.24173,1.00000,2
 97.09855,22.72000,    -2.24395,1.00000,2
 97.49898,22.76000,    -2.24824,1.00000,2
 97.89937,22.80000,    -2.25952,1.00000,2
 98.29959,22.84000,    -2.26279,1.00000,2
 98.69988,22.88000,    -2.25838,1.00000,2
 99.10009,22.92000,    -2.26931,1.00000,2
 99.50001,22.96000,    -2.27660,1.00000,2
 99.89983,23.00000,    -2.27418,1.00000,2
100.3,23.04000,    -2.28135,1.00000,2
100.699,23.08000,    -2.27275,1.00000,2
101.099,23.12000,    -2.28000,1.00000,2
101.499,23.16000,    -2.28073,1.00000,2
101.899,23.20000,    -2.28528,1.00000,2
102.3,23.24000,    -2.28607,1.00000,2
102.7,23.28000,    -2.28636,1.00000,2
103.1,23.32000,    -2.29188,1.00000,2
103.501,23.36000,    -2.29352,1.00000,2
103.901,23.40000,    -2.28847,1.00000,2
104.302,23.44000,    -2.30156,1.00000,2
104.702,23.48000,    -2.30569,1.00000,2
105.102,23.52000,    -2.30561,1.00000,2
105.503,23.56000,    -2.30895,1.00000,2
105.903,23.60000,    -2.32268,1.00000,2
106.303,23.64000,    -2.32065,1.00000,2
106.703,23.68000,    -2.32069,1.00000,2
107.104,23.72000,    -2.33225,1.00000,2
107.504,23.76000,    -2.33555,1.00000,2
107.904,23.80000,    -2.33338,1.00000,2
108.304,23.84000,    -2.33504,1.00000,2
108.704,23.88000,    -2.34058,1.00000,2
109.104,23.92000,    -2.33864,1.00000,2
109.505,23.96000,    -2.34369,1.00000,2
109.905,24.00000,    -2.34325,1.00000,2
110.305,24.04000,    -2.35339,1.00000,2
110.705,24.08000,    -2.35068,1.00000,2
111.105,24.12000,    -2.35040,1.00000,2
111.505,24.16000,    -2.35719,1.00000,2
111.905,24.20000,    -2.35344,1.00000,2
112.305,24.24000,    -2.37089,1.00000,2
112.705,24.28000,    -2.36922,1.00000,2
113.105,24.32000,    -2.35856,1.00000,2
113.505,24.36000,    -2.36705,1.00000,2
113.905,24.40000,    -2.37809,1.00000,2
114.305,24.44000,    -2.36984,1.00000,2
114.706,24.48000,    -2.38345,1.00000,2
115.106,24.52000,    -2.38102,1.00000,2
115.506,24.56000,    -2.38526,1.00000,2
115.906,24.60000,    -2.38701,1.00000,2
116.306,24.64000,    -2.38600,1.00000,2
116.706,24.68000,    -2.40055,1.00000,2
117.106,24.72000,    -2.39782,1.00000,2
117.506,24.76000,    -2.39826,1.00000,2
117.907,24.80000,    -2.40056,1.00000,2
118.307,24.84000,    -2.40759,1.00000,2
118.707,24.88000,    -2.41438,1.00000,2
119.108,24.92000,    -2.42136,1.00000,2
119.508,24.96000,    -2.41960,1.00000,2
119.908,25.00000,    -2.42376,1.00000,2
120.307,25.04000,    -2.42679,1.00000,2
120.707,25.08000,    -2.42782,1.00000,2
121.107,25.12000,    -2.42833,1.00000,2
121.507,25.16000,    -2.43149,1.00000,2
121.908,25.20000,    -2.42999,1.00000,2
122.308,25.24000,    -2.43367,1.00000,2
122.708,25.28000,    -2.43765,1.00000,2
123.108,25.32000,    -2.44062,1.00000,2
123.508,25.36000,    -2.44590,1.00000,2
123.909,25.40000,    -2.44800,1.00000,2
124.309,25.44000,    -2.45227,1.00000,2
124.709,25.48000,    -2.45770,1.00000,2
125.11,25.52000,    -2.45829,1.00000,2
125.51,25.56000,    -2.46810,1.00000,2
125.91,25.60000,    -2.47266,1.00000,2
126.31,25.64000,    -2.47213,1.00000,2
126.71,25.68000,    -2.47994,1.00000,2
127.11,25.72000,    -2.46933,1.00000,2
127.51,25.76000,    -2.47376,1.00000,2
127.91,25.80000,    -2.47631,1.00000,2
128.311,25.84000,    -2.48011,1.00000,2
128.712,25.88000,    -2.47946,1.00000,2
129.112,25.92000,    -2.47921,1.00000,2
129.513,25.96000,    -2.48947,1.00000,2
129.913,26.00000,    -2.49519,1.00000,2
130.312,26.04000,    -2.49594,1.00000,2
130.711,26.08000,    -2.49869,1.00000,2
131.11,26.12000,    -2.49117,1.00000,2
131.509,26.16000,    -2.49842,1.00000,2
131.909,26.20000,    -2.49537,1.00000,2
132.309,26.24000,    -2.50288,1.00000,2
132.71,26.28000,    -2.51098,1.00000,2
133.111,26.32000,    -2.51491,1.00000,2
133.512,26.36000,    -2.51823,1.00000,2
133.912,26.40000,    -2.51998,1.00000,2
134.313,26.44000,    -2.52160,1.00000,2
134.713,26.48000,    -2.52745,1.00000,2
135.113,26.52000,    -2.52906,1.00000,2
135.513,26.56000,    -2.52577,1.00000,2
135.912,26.60000,    -2.53357,1.00000,2
136.312,26.64000,    -2.53708,1.00000,2
136.712,26.68000,    -2.53436,1.00000,2
137.112,26.72000,    -2.54036,1.00000,2
137.512,26.76000,    -2.54130,1.00000,2
137.912,26.80000,    -2.54663,1.00000,2
138.311,26.84000,    -2.54666,1.00000,2
138.711,26.88000,    -2.55193,1.00000,2
139.111,26.92000,    -2.54893,1.00000,2
139.511,26.96000,    -2.55585,1.00000,2
139.911,27.00000,    -2.55431,1.00000,2
140.311,27.04000,    -2.56552,1.00000,2
140.711,27.08000,    -2.55887,1.00000,2
141.111,27.12000,    -2.56229,1.00000,2
141.511,27.16000,    -2.56986,1.00000,2
141.911,27.20000,    -2.57430,1.00000,2
142.311,27.24000,    -2.58173,1.00000,2
142.712,27.28000,    -2.58057,1.00000,2
143.112,27.32000,    -2.57825,1.00000,2
143.512,27.36000,    -2.58511,1.00000,2
143.912,27.40000,    -2.58808,1.00000,2
144.312,27.44000,    -2.59207,1.00000,2
144.712,27.48000,    -2.59729,1.00000,2
145.113,27.52000,    -2.59397,1.00000,2
145.513,27.56000,    -2.59556,1.00000,2
145.914,27.60000,    -2.59725,1.00000,2
146.314,27.64000,    -2.60527,1.00000,2
146.714,27.68000,    -2.60742,1.00000,2
147.115,27.72000,    -2.61436,1.00000,2
147.515,27.76000,    -2.61057,1.00000,2
147.916,27.80000,    -2.61565,1.00000,2
148.316,27.84000,    -2.61415,1.00000,2
148.716,27.88000,    -2.61887,1.00000,2
149.116,27.92000,    -2.61860,1.00000,2
149.516,27.96000,    -2.62193,1.00000,2
149.916,28.00000,    -2.62704,1.00000,2
150.315,28.04000,    -2.62305,1.00000,2
150.715,28.08000,    -2.62327,1.00000,2
151.115,28.12000,    -2.63434,1.00000,2
151.515,28.16000,    -2.63002,1.00000,2
151.914,28.20000,    -2.63023,1.00000,2
152.315,28.24000,    -2.63376,1.00000,2
152.715,28.28000,    -2.64153,1.00000,2
153.115,28.32000,    -2.64920,1.00000,2
153.515,28.36000,    -2.64420,1.00000,2
153.916,28.40000,    -2.64871,1.00000,2
154.316,28.44000,    -2.66331,1.00000,2
154.717,28.48000,    -2.65491,1.00000,2
155.117,28.52000,    -2.65728,1.00000,2
155.517,28.56000,    -2.65914,1.00000,2
155.917,28.60000,    -2.66709,1.00000,2
156.317,28.64000,    -2.67370,1.00000,2
156.717,28.68000,    -2.66451,1.00000,2
157.117,28.72000,    -2.66893,1.00000,2
157.517,28.76000,    -2.67060,1.00000,2
157.917,28.80000,    -2.67381,1.00000,2
158.318,28.84000,    -2.68225,1.00000,2
158.718,28.88000,    -2.67559,1.00000,2
159.118,28.92000,    -2.68734,1.00000,2
159.518,28.96000,    -2.68413,1.00000,2
159.918,29.00000,    -2.68703,1.00000,2
160.318,29.04000,    -2.68794,1.00000,2
160.718,29.08000,    -2.69239,1.00000,2
161.118,29.12000,    -2.69121,1.00000,2
161.518,29.16000,    -2.69323,1.00000,2
161.919,29.20000,    -2.69165,1.00000,2
162.319,29.24000,    -2.70050,1.00000,2
162.72,29.28000,    -2.70349,1.00000,2
163.12,29.32000,    -2.69999,1.00000,2
163.52,29.36000,    -2.70577,1.00000,2
163.92,29.40000,    -2.70620,1.00000,2
164.32,29.44000,    -2.70913,1.00000,2
164.72,29.48000,    -2.71544,1.00000,2
165.12,29.52000,    -2.71750,1.00000,2
165.52,29.56000,    -2.71890,1.00000,2
165.92,29.60000,    -2.72453,1.00000,2
166.32,29.64000,    -2.71859,1.00000,2
166.72,29.68000,    -2.72653,1.00000,2
167.12,29.72000,    -2.73295,1.00000,2
167.521,29.76000,    -2.73264,1.00000,2
167.921,29.80000,    -2.73433,1.00000,2
168.321,29.84000,    -2.73972,1.00000,2
168.721,29.88000,    -2.73960,1.00000,2
169.121,29.92000,    -2.73734,1.00000,2
169.521,29.96000,    -2.74213,1.00000,2
169.921,30.00000,    -2.74235,1.00000,2
170.321,30.04000,    -2.75457,1.00000,2
170.721,30.08000,    -2.74484,1.00000,2
171.121,30.12000,    -2.75274,1.00000,2
171.521,30.16000,    -2.74739,1.00000,2
171.921,30.20000,    -2.74498,1.00000,2
172.321,30.24000,    -2.75947,1.00000,2
172.722,30.28000,    -2.75507,1.00000,2
173.122,30.32000,    -2.75518,1.00000,2
173.522,30.36000,    -2.76080,1.00000,2
173.923,30.40000,    -2.76417,1.00000,2
174.323,30.44000,    -2.77185,1.00000,2
174.723,30.48000,    -2.77211,1.00000,2
175.123,30.52000,    -2.76413,1.00000,2
175.523,30.56000,    -2.77121,1.00000,2
175.923,30.60000,    -2.77545,1.00000,2
176.323,30.64000,    -2.77681,1.00000,2
176.724,30.68000,    -2.78036,1.00000,2
177.124,30.72000,    -2.78368,1.00000,2
177.524,30.76000,    -2.78139,1.00000,2
177.924,30.80000,    -2.78221,1.00000,2
178.324,30.84000,    -2.79104,1.00000,2
178.724,30.88000,    -2.79036,1.00000,2
179.124,30.92000,    -2.79383,1.00000,2
179.524,30.96000,    -2.79119,1.00000,2
179.925,31.00000,    -2.80036,1.00000,2
180.222,31.04000,    -2.87684,1.00000,3
180.417,31.08000,    -3.06400,1.00000,3
180.525,31.12000,    -3.25228,1.00000,3
180.556,31.16000,    -3.33643,1.00000,3
180.546,31.20000,    -3.20865,1.00000,3
180.529,31.24000,    -2.77466,1.00000,3
180.519,31.28000,    -2.11438,1.00000,3
180.509,31.32000,    -1.42647,1.00000,3
180.497,31.36000,    -0.85870,1.00000,3
180.484,31.40000,    -0.42047,1.00000,3
180.471,31.44000,-9.8551e-002,1.00000,3
180.46,31.48000,     0.12552,1.00000,3
180.449,31.52000,     0.27377,1.00000,3
180.439,31.56000,     0.36628,1.00000,3
180.429,31.60000,     0.41784,1.00000,3
180.421,31.64000,     0.44207,1.00000,3
180.413,31.68000,     0.44878,1.00000,3
180.403,31.72000,     0.44514,1.00000,3
180.393,31.76000,     0.43646,1.00000,3
180.387,31.80000,     0.42318,1.00000,3
180.39,31.84000,     0.40521,1.00000,3
180.396,31.88000,     0.38490,1.00000,3
180.398,31.92000,     0.36626,1.00000,3
180.389,31.96000,     0.35152,1.00000,3
180.374,32.00000,     0.33809,1.00000,3
180.359,32.04000,     0.32294,1.00000,3
180.347,32.08000,     0.30667,1.00000,3
180.336,32.12000,     0.29244,1.00000,3
180.326,32.16000,     0.28190,1.00000,3
180.317,32.20000,     0.27271,1.00000,3
180.308,32.24000,     0.26211,1.00000,3
180.301,32.28000,     0.25035,1.00000,3
180.294,32.32000,     0.23969,1.00000,3
180.287,32.36000,     0.23147,1.00000,3
180.281,32.40000,     0.22455,1.00000,3
180.276,32.44000,     0.21752,1.00000,3
180.271,32.48000,     0.21050,1.00000,3
180.266,32.52000,     0.20466,1.00000,3
180.261,32.56000,     0.20053,1.00000,3
180.257,32.60000,     0.19696,1.00000,3
180.252,32.64000,     0.19262,1.00000,3
180.248,32.68000,     0.18757,1.00000,3
180.245,32.72000,     0.18276,1.00000,3
180.241,32.76000,     0.17882,1.00000,3
180.237,32.80000,     0.17548,1.00000,3
180.234,32.84000,     0.17233,1.00000,3
180.23,32.88000,     0.16947,1.00000,3
180.227,32.92000,     0.16730,1.00000,3
180.224,32.96000,     0.16592,1.00000,3
180.221,33.00000,     0.16450,1.00000,3
180.218,33.04000,     0.16221,1.00000,3
180.215,33.08000,     0.15969,1.00000,3
180.212,33.12000,     0.15854,1.00000,3
180.209,33.16000,     0.15934,1.00000,3
180.206,33.20000,     0.15981,1.00000,3
180.203,33.24000,     0.15749,1.00000,3
180.2,33.28000,     0.15301,1.00000,3
180.197,33.32000,     0.14910,1.00000,3
180.195,33.36000,     0.14738,1.00000,3
180.192,33.40000,     0.14635,1.00000,3
180.189,33.44000,     0.14421,1.00000,3
180.186,33.48000,     0.14114,1.00000,3
180.183,33.52000,     0.13871,1.00000,3
180.181,33.56000,     0.13790,1.00000,3
180.178,33.60000,     0.13812,1.00000,3
180.175,33.64000,     0.13856,1.00000,3
180.173,33.68000,     0.13870,1.00000,3
180.17,33.72000,     0.13823,1.00000,3
180.168,33.76000,     0.13701,1.00000,3
180.165,33.80000,     0.13528,1.00000,3
180.163,33.84000,     0.13332,1.00000,3
180.16,33.88000,     0.13123,1.00000,3
180.158,33.92000,     0.12897,1.00000,3
180.155,33.96000,     0.12661,1.00000,3
180.153,34.00000,     0.12458,1.00000,3
180.15,34.04000,     0.12328,1.00000,3
180.148,34.08000,     0.12232,1.00000,3
180.146,34.12000,     0.12072,1.00000,3
180.143,34.16000,     0.11803,1.00000,3
180.141,34.20000,     0.11512,1.00000,3
180.139,34.24000,     0.11301,1.00000,3
180.137,34.28000,     0.11185,1.00000,3
180.134,34.32000,     0.11116,1.00000,3
180.132,34.36000,     0.11051,1.00000,3
180.13,34.40000,     0.10950,1.00000,3
180.128,34.44000,     0.10784,1.00000,3
180.126,34.48000,     0.10605,1.00000,3
180.124,34.52000,     0.10521,1.00000,3
180.122,34.56000,     0.10587,1.00000,3
180.12,34.60000,     0.10716,1.00000,3
180.118,34.64000,     0.10804,1.00000,3
180.116,34.68000,     0.10773,1.00000,3
180.114,34.72000,     0.10566,1.00000,3
180.112,34.76000,     0.10188,1.00000,3
180.11,34.80000, 9.8017e-002,1.00000,3
180.108,34.84000, 9.5835e-002,1.00000,3
180.106,34.88000, 9.5380e-002,1.00000,3
180.104,34.92000, 9.5537e-002,1.00000,3
180.102,34.96000, 9.5454e-002,1.00000,3
180.1,35.00000, 9.5021e-002,1.00000,3
180.099,35.04000, 9.4245e-002,1.00000,3
180.097,35.08000, 9.3094e-002,1.00000,3
180.095,35.12000, 9.1514e-002,1.00000,3
180.094,35.16000, 8.9586e-002,1.00000,3
180.092,35.20000, 8.7761e-002,1.00000,3
180.091,35.24000, 8.6485e-002,1.00000,3
180.089,35.28000, 8.5472e-002,1.00000,3
180.087,35.32000, 8.3935e-002,1.00000,3
180.086,35.36000, 8.1652e-002,1.00000,3
180.084,35.40000, 7.9894e-002,1.00000,3
180.083,35.44000, 8.0002e-002,1.00000,3
180.081,35.48000, 8.1156e-002,1.00000,3
180.08,35.52000, 8.1070e-002,1.00000,3
180.078,35.56000, 7.8622e-002,1.00000,3
180.077,35.60000, 7.5797e-002,1.00000,3
180.076,35.64000, 7.4860e-002,1.00000,3
180.074,35.68000, 7.5368e-002,1.00000,3
180.073,35.72000, 7.5032e-002,1.00000,3
180.072,35.76000, 7.2706e-002,1.00000,3
180.071,35.80000, 7.0311e-002,1.00000,3
180.069,35.84000, 7.0058e-002,1.00000,3
180.068,35.88000, 7.1651e-002,1.00000,3
180.067,35.92000, 7.3082e-002,1.00000,3
180.065,35.96000, 7.3016e-002,1.00000,3
180.064,36.00000, 7.1946e-002,1.00000,3
180.063,36.04000, 7.0614e-002,1.00000,3
180.062,36.08000, 6.9180e-002,1.00000,3
180.061,36.12000, 6.7410e-002,1.00000,3
180.06,36.16000, 6.5461e-002,1.00000,3
180.059,36.20000, 6.4526e-002,1.00000,3
180.058,36.24000, 6.5791e-002,1.00000,3
180.057,36.28000, 6.8211e-002,1.00000,3
180.056,36.32000, 6.9225e-002,1.00000,3
180.055,36.36000, 6.7386e-002,1.00000,3
180.054,36.40000, 6.4221e-002,1.00000,3
180.053,36.44000, 6.1638e-002,1.00000,3
180.052,36.48000, 6.0337e-002,1.00000,3
180.051,36.52000, 6.0192e-002,1.00000,3
180.05,36.56000, 6.0954e-002,1.00000,3
180.049,36.60000, 6.2096e-002,1.00000,3
180.048,36.64000, 6.3047e-002,1.00000,3
180.047,36.68000, 6.3270e-002,1.00000,3
180.047,36.72000, 6.2248e-002,1.00000,3
180.046,36.76000, 5.9965e-002,1.00000,3
180.045,36.80000, 5.7706e-002,1.00000,3
180.044,36.84000, 5.6819e-002,1.00000,3
180.043,36.88000, 5.6869e-002,1.00000,3
180.042,36.92000, 5.6205e-002,1.00000,3
180.042,36.96000, 5.3855e-002,1.00000,3
180.041,37.00000, 5.0673e-002,1.00000,3
180.04,37.04000, 4.7795e-002,1.00000,3
180.04,37.08000, 4.6213e-002,1.00000,3
180.039,37.12000, 4.6816e-002,1.00000,3
180.038,37.16000, 4.9530e-002,1.00000,3
180.038,37.20000, 5.1771e-002,1.00000,3
180.037,37.24000, 5.0831e-002,1.00000,3
180.036,37.28000, 4.7472e-002,1.00000,3
180.035,37.32000, 4.4820e-002,1.00000,3
180.035,37.36000, 4.4734e-002,1.00000,3
180.034,37.40000, 4.5649e-002,1.00000,3
180.034,37.44000, 4.5612e-002,1.00000,3
180.033,37.48000, 4.4696e-002,1.00000,3
180.033,37.52000, 4.4350e-002,1.00000,3
180.032,37.56000, 4.5321e-002,1.00000,3
180.032,37.60000, 4.6453e-002,1.00000,3
180.031,37.64000, 4.6388e-002,1.00000,3
180.031,37.68000, 4.5070e-002,1.00000,3
180.03,37.72000, 4.3327e-002,1.00000,3
180.03,37.76000, 4.1901e-002,1.00000,3
180.029,37.80000, 4.1257e-002,1.00000,3
180.029,37.84000, 4.1751e-002,1.00000,3
180.028,37.88000, 4.2900e-002,1.00000,3
180.028,37.92000, 4.3648e-002,1.00000,3
180.027,37.96000, 4.3273e-002,1.00000,3
180.027,38.00000, 4.1951e-002,1.00000,3
180.027,38.04000, 4.0029e-002,1.00000,3
180.026,38.08000, 3.8226e-002,1.00000,3
180.026,38.12000, 3.7510e-002,1.00000,3
180.025,38.16000, 3.8143e-002,1.00000,3
180.025,38.20000, 3.8542e-002,1.00000,3
180.025,38.24000, 3.7007e-002,1.00000,3
180.024,38.28000, 3.4117e-002,1.00000,3
180.024,38.32000, 3.2001e-002,1.00000,3
180.024,38.36000, 3.2056e-002,1.00000,3
180.023,38.40000, 3.3691e-002,1.00000,3
180.023,38.44000, 3.5972e-002,1.00000,3
180.023,38.48000, 3.7657e-002,1.00000,3
180.022,38.52000, 3.7295e-002,1.00000,3
180.022,38.56000, 3.4452e-002,1.00000,3
180.022,38.60000, 3.1347e-002,1.00000,3
180.021,38.64000, 3.0413e-002,1.00000,3
180.021,38.68000, 3.1404e-002,1.00000,3
180.021,38.72000, 3.2254e-002,1.00000,3
180.021,38.76000, 3.1727e-002,1.00000,3
180.02,38.80000, 3.0836e-002,1.00000,3
180.02,38.84000, 3.0849e-002,1.00000,3
180.02,38.88000, 3.1669e-002,1.00000,3
180.02,38.92000, 3.2273e-002,1.00000,3
180.019,38.96000, 3.2058e-002,1.00000,3
180.019,39.00000, 3.1568e-002,1.00000,3
180.019,39.04000, 3.1468e-002,1.00000,3
180.019,39.08000, 3.1631e-002,1.00000,3
180.018,39.12000, 3.1389e-002,1.00000,3
180.018,39.16000, 3.0434e-002,1.00000,3
180.018,39.20000, 2.9419e-002,1.00000,3
180.018,39.24000, 2.9089e-002,1.00000,3
180.018,39.28000, 2.9460e-002,1.00000,3
180.017,39.32000, 3.0049e-002,1.00000,3
180.017,39.36000, 3.0482e-002,1.00000,3
180.017,39.40000, 3.0698e-002,1.00000,3
180.017,39.44000, 3.0675e-002,1.00000,3
180.017,39.48000, 3.0206e-002,1.00000,3
180.016,39.52000, 2.8964e-002,1.00000,3
180.016,39.56000, 2.6956e-002,1.00000,3
180.016,39.60000, 2.5066e-002,1.00000,3
180.016,39.64000, 2.4237e-002,1.00000,3
180.016,39.68000, 2.4368e-002,1.00000,3
180.016,39.72000, 2.4646e-002,1.00000,3
180.016,39.76000, 2.4506e-002,1.00000,3
180.016,39.80000, 2.4068e-002,1.00000,3
180.015,39.84000, 2.3558e-002,1.00000,3
180.015,39.88000, 2.3182e-002,1.00000,3
180.015,39.92000, 2.3132e-002,1.00000,3
180.015,39.96000, 2.3528e-002,1.00000,3
180.015,40.00000, 2.4302e-002,1.00000,3
180.015,40.04000, 2.5326e-002,1.00000,3
180.015,40.08000, 2.6143e-002,1.00000,3
180.015,40.12000, 2.6072e-002,1.00000,3
180.015,40.16000, 2.4724e-002,1.00000,3
180.014,40.20000, 2.2497e-002,1.00000,3
180.014,40.24000, 1.9930e-002,1.00000,3
180.014,40.28000, 1.7796e-002,1.00000,3
180.014,40.32000, 1.7026e-002,1.00000,3
180.014,40.36000, 1.7991e-002,1.00000,3
180.014,40.40000, 1.9597e-002,1.00000,3
180.014,40.44000, 2.0614e-002,1.00000,3
180.014,40.48000, 2.1047e-002,1.00000,3
180.014,40.52000, 2.1747e-002,1.00000,3
180.014,40.56000, 2.3196e-002,1.00000,3
180.013,40.60000, 2.4882e-002,1.00000,3
180.013,40.64000, 2.6154e-002,1.00000,3
180.013,40.68000, 2.6610e-002,1.00000,3
180.013,40.72000, 2.6024e-002,1.00000,3
180.013,40.76000, 2.4471e-002,1.00000,3
180.013,40.80000, 2.2808e-002,1.00000,3
180.013,40.84000, 2.1951e-002,1.00000,3
180.013,40.88000, 2.1988e-002,1.00000,3
180.013,40.91000, 2.2316e-002,1.00000,3