File: thermodynamics/5capacity/ExpDat_03883_quartz_-30-180_10_Ar-20-70_03.04.12.csv
#EXPORTTYPE:                 ,DATA SINGLE
#FILE:                       ,03883_?????_-30-180_10_Ar-20-70_03.04.12.dd3
#FORMAT:                     ,NETZSCH5
#FTYPE:                      ,ASCII
#IDENTITY:                   ,03883
#DECIMAL:                    ,POINT
#SEPARATOR:                  ,COMMA
#MTYPE:                      ,DSC
#INSTRUMENT:                 ,NETZSCH DSC 204F1
#PROJECT:                    ,'??<R?¿?Raai
#DATE/TIME:                  ,03-Apr-12 7:35:55 PM
#CORR. FILE:                 ,03881-2_bline_-30-180_10_Ar-20-70_03.04.12.bd3
#TEMPCAL:                    ,03060_Al-pirced_10_Ar-20-70_27.01.11.td3
#SENSITIVITY:                ,Senszero.exx
#LABORATORY:                 ,'?a¿Rý?-ÿ¿???
#OPERATOR:                   ,?a?e?-?R
#REMARK:                     ,
#SAMPLE:                     ,S?ÿa?
#SAMPLE MASS /mg:            ,7.3860
#MATERIAL:                   ,??a
#REFERENCE:                  ,-?a
#REFERENCE MASS /mg:         ,0.0000
#TYPE OF CRUCIBLE:           ,Pan Al, pierced lid
#SAMPLE CRUCIBLE MASS /mg:   ,0.0000
#REFERENCE CRUCIBLE MASS /mg:,0.0000
#M.RANGE /cV:                ,5000
#TAU-R:                      ,---
#CORR. CODE:                 ,000
#EXO:                        ,+1
#RANGE:                      ,-30oC....180oC/0.0....10.0K/min
#SEGMENT:                    ,S1-3/3
#SEG. 1:                     ,-30oC/00:10/-30oC
#SEG. 2:                     ,-30oC/10.0(K/min)/180oC
#SEG. 3:                     ,180oC/00:10/180oC

##Temp./oC,Time/min,DSC/uV,Sensit./(uV/mW),Segment
-29.53000, 0.00000,    -1.25470,1.00000,1
-29.58570, 0.04000,    -1.29424,1.00000,1
-29.63626, 0.08000,    -1.33861,1.00000,1
-29.67671, 0.12000,    -1.39168,1.00000,1
-29.70617, 0.16000,    -1.43543,1.00000,1
-29.72780, 0.20000,    -1.42995,1.00000,1
-29.74458, 0.24000,    -1.35103,1.00000,1
-29.75796, 0.28000,    -1.24114,1.00000,1
-29.76900, 0.32000,    -1.15776,1.00000,1
-29.77846, 0.36000,    -1.12102,1.00000,1
-29.78678, 0.40000,    -1.11364,1.00000,1
-29.79437, 0.44000,    -1.11877,1.00000,1
-29.80147, 0.48000,    -1.12784,1.00000,1
-29.80830, 0.52000,    -1.13453,1.00000,1
-29.81497, 0.56000,    -1.13637,1.00000,1
-29.82154, 0.60000,    -1.13478,1.00000,1
-29.82795, 0.64000,    -1.13154,1.00000,1
-29.83379, 0.68000,    -1.12927,1.00000,1
-29.83860, 0.72000,    -1.13066,1.00000,1
-29.84315, 0.76000,    -1.13459,1.00000,1
-29.84947, 0.80000,    -1.13618,1.00000,1
-29.85888, 0.84000,    -1.13176,1.00000,1
-29.86964, 0.88000,    -1.12327,1.00000,1
-29.87936, 0.92000,    -1.11397,1.00000,1
-29.88701, 0.96000,    -1.10610,1.00000,1
-29.89300, 1.00000,    -1.10090,1.00000,1
-29.89778, 1.04000,    -1.09878,1.00000,1
-29.90176, 1.08000,    -1.09712,1.00000,1
-29.90536, 1.12000,    -1.09261,1.00000,1
-29.90882, 1.16000,    -1.08437,1.00000,1
-29.91224, 1.20000,    -1.07393,1.00000,1
-29.91566, 1.24000,    -1.06301,1.00000,1
-29.91908, 1.28000,    -1.05364,1.00000,1
-29.92243, 1.32000,    -1.04782,1.00000,1
-29.92572, 1.36000,    -1.04492,1.00000,1
-29.92894, 1.40000,    -1.04169,1.00000,1
-29.93212, 1.44000,    -1.03566,1.00000,1
-29.93527, 1.48000,    -1.02795,1.00000,1
-29.93837, 1.52000,    -1.02054,1.00000,1
-29.94144, 1.56000,    -1.01471,1.00000,1
-29.94447, 1.60000,    -1.01104,1.00000,1
-29.94746, 1.64000,    -1.00942,1.00000,1
-29.95042, 1.68000,    -1.00721,1.00000,1
-29.95333, 1.72000,    -1.00129,1.00000,1
-29.95619, 1.76000,    -0.99207,1.00000,1
-29.95894, 1.80000,    -0.98345,1.00000,1
-29.96156, 1.84000,    -0.97849,1.00000,1
-29.96405, 1.88000,    -0.97636,1.00000,1
-29.96639, 1.92000,    -0.97522,1.00000,1
-29.96862, 1.96000,    -0.97313,1.00000,1
-29.97076, 2.00000,    -0.96808,1.00000,1
-29.97286, 2.04000,    -0.95921,1.00000,1
-29.97487, 2.08000,    -0.95032,1.00000,1
-29.97674, 2.12000,    -0.94621,1.00000,1
-29.97847, 2.16000,    -0.94699,1.00000,1
-29.98006, 2.20000,    -0.94814,1.00000,1
-29.98155, 2.24000,    -0.94588,1.00000,1
-29.98302, 2.28000,    -0.94032,1.00000,1
-29.98453, 2.32000,    -0.93256,1.00000,1
-29.98609, 2.36000,    -0.92439,1.00000,1
-29.98759, 2.40000,    -0.91833,1.00000,1
-29.98893, 2.44000,    -0.91611,1.00000,1
-29.99014, 2.48000,    -0.91637,1.00000,1
-29.99126, 2.52000,    -0.91696,1.00000,1
-29.99233, 2.56000,    -0.91606,1.00000,1
-29.99341, 2.60000,    -0.91214,1.00000,1
-29.99454, 2.64000,    -0.90466,1.00000,1
-29.99568, 2.68000,    -0.89707,1.00000,1
-29.99678, 2.72000,    -0.89364,1.00000,1
-29.99782, 2.76000,    -0.89459,1.00000,1
-29.99876, 2.80000,    -0.89611,1.00000,1
-29.99962, 2.84000,    -0.89506,1.00000,1
-30.00043, 2.88000,    -0.89158,1.00000,1
-30.00122, 2.92000,    -0.88664,1.00000,1
-30.00202, 2.96000,    -0.88138,1.00000,1
-30.00276, 3.00000,    -0.87707,1.00000,1
-30.00343, 3.04000,    -0.87477,1.00000,1
-30.00399, 3.08000,    -0.87471,1.00000,1
-30.00445, 3.12000,    -0.87682,1.00000,1
-30.00483, 3.16000,    -0.87912,1.00000,1
-30.00524, 3.20000,    -0.87774,1.00000,1
-30.00573, 3.24000,    -0.87022,1.00000,1
-30.00627, 3.28000,    -0.86011,1.00000,1
-30.00677, 3.32000,    -0.85231,1.00000,1
-30.00719, 3.36000,    -0.84899,1.00000,1
-30.00747, 3.40000,    -0.84954,1.00000,1
-30.00761, 3.44000,    -0.85266,1.00000,1
-30.00770, 3.48000,    -0.85472,1.00000,1
-30.00786, 3.52000,    -0.85172,1.00000,1
-30.00814, 3.56000,    -0.84404,1.00000,1
-30.00847, 3.60000,    -0.83651,1.00000,1
-30.00879, 3.64000,    -0.83306,1.00000,1
-30.00907, 3.68000,    -0.83324,1.00000,1
-30.00926, 3.72000,    -0.83554,1.00000,1
-30.00940, 3.76000,    -0.83810,1.00000,1
-30.00953, 3.80000,    -0.83878,1.00000,1
-30.00970, 3.84000,    -0.83596,1.00000,1
-30.00993, 3.88000,    -0.83022,1.00000,1
-30.01020, 3.92000,    -0.82269,1.00000,1
-30.01049, 3.96000,    -0.81559,1.00000,1
-30.01071, 4.00000,    -0.81211,1.00000,1
-30.01078, 4.04000,    -0.81429,1.00000,1
-30.01077, 4.08000,    -0.81913,1.00000,1
-30.01077, 4.12000,    -0.82246,1.00000,1
-30.01080, 4.16000,    -0.82186,1.00000,1
-30.01088, 4.20000,    -0.81665,1.00000,1
-30.01099, 4.24000,    -0.80725,1.00000,1
-30.01109, 4.28000,    -0.79811,1.00000,1
-30.01113, 4.32000,    -0.79453,1.00000,1
-30.01113, 4.36000,    -0.79718,1.00000,1
-30.01112, 4.40000,    -0.80220,1.00000,1
-30.01113, 4.44000,    -0.80593,1.00000,1
-30.01117, 4.48000,    -0.80652,1.00000,1
-30.01118, 4.52000,    -0.80268,1.00000,1
-30.01118, 4.56000,    -0.79534,1.00000,1
-30.01118, 4.60000,    -0.78770,1.00000,1
-30.01119, 4.64000,    -0.78268,1.00000,1
-30.01121, 4.68000,    -0.78174,1.00000,1
-30.01126, 4.72000,    -0.78582,1.00000,1
-30.01132, 4.76000,    -0.79237,1.00000,1
-30.01135, 4.80000,    -0.79531,1.00000,1
-30.01135, 4.84000,    -0.79030,1.00000,1
-30.01131, 4.88000,    -0.78055,1.00000,1
-30.01127, 4.92000,    -0.77107,1.00000,1
-30.01123, 4.96000,    -0.76494,1.00000,1
-30.01118, 5.00000,    -0.76331,1.00000,1
-30.01110, 5.04000,    -0.76649,1.00000,1
-30.01102, 5.08000,    -0.77170,1.00000,1
-30.01099, 5.12000,    -0.77549,1.00000,1
-30.01099, 5.16000,    -0.77603,1.00000,1
-30.01100, 5.20000,    -0.77317,1.00000,1
-30.01099, 5.24000,    -0.76741,1.00000,1
-30.01096, 5.28000,    -0.76146,1.00000,1
-30.01092, 5.32000,    -0.75851,1.00000,1
-30.01087, 5.36000,    -0.75939,1.00000,1
-30.01082, 5.40000,    -0.76251,1.00000,1
-30.01079, 5.44000,    -0.76602,1.00000,1
-30.01077, 5.48000,    -0.76733,1.00000,1
-30.01077, 5.52000,    -0.76380,1.00000,1
-30.01077, 5.56000,    -0.75590,1.00000,1
-30.01076, 5.60000,    -0.74723,1.00000,1
-30.01073, 5.64000,    -0.74113,1.00000,1
-30.01071, 5.68000,    -0.73965,1.00000,1
-30.01072, 5.72000,    -0.74430,1.00000,1
-30.01077, 5.76000,    -0.75272,1.00000,1
-30.01082, 5.80000,    -0.75868,1.00000,1
-30.01085, 5.84000,    -0.75741,1.00000,1
-30.01084, 5.88000,    -0.75075,1.00000,1
-30.01080, 5.92000,    -0.74216,1.00000,1
-30.01072, 5.96000,    -0.73460,1.00000,1
-30.01065, 6.00000,    -0.73051,1.00000,1
-30.01059, 6.04000,    -0.73162,1.00000,1
-30.01055, 6.08000,    -0.73683,1.00000,1
-30.01051, 6.12000,    -0.74428,1.00000,1
-30.01045, 6.16000,    -0.75093,1.00000,1
-30.01035, 6.20000,    -0.75259,1.00000,1
-30.01020, 6.24000,    -0.74660,1.00000,1
-30.01003, 6.28000,    -0.73673,1.00000,1
-30.00986, 6.32000,    -0.72825,1.00000,1
-30.00971, 6.36000,    -0.72415,1.00000,1
-30.00959, 6.40000,    -0.72516,1.00000,1
-30.00949, 6.44000,    -0.73101,1.00000,1
-30.00943, 6.48000,    -0.73795,1.00000,1
-30.00941, 6.52000,    -0.74148,1.00000,1
-30.00939, 6.56000,    -0.73973,1.00000,1
-30.00929, 6.60000,    -0.73351,1.00000,1
-30.00905, 6.64000,    -0.72434,1.00000,1
-30.00877, 6.68000,    -0.71610,1.00000,1
-30.00856, 6.72000,    -0.71312,1.00000,1
-30.00847, 6.76000,    -0.71656,1.00000,1
-30.00847, 6.80000,    -0.72440,1.00000,1
-30.00850, 6.84000,    -0.73393,1.00000,1
-30.00850, 6.88000,    -0.74020,1.00000,1
-30.00841, 6.92000,    -0.73794,1.00000,1
-30.00821, 6.96000,    -0.72744,1.00000,1
-30.00794, 7.00000,    -0.71446,1.00000,1
-30.00764, 7.04000,    -0.70449,1.00000,1
-30.00738, 7.08000,    -0.70087,1.00000,1
-30.00724, 7.12000,    -0.70615,1.00000,1
-30.00722, 7.16000,    -0.71765,1.00000,1
-30.00724, 7.20000,    -0.72744,1.00000,1
-30.00720, 7.24000,    -0.72935,1.00000,1
-30.00709, 7.28000,    -0.72522,1.00000,1
-30.00689, 7.32000,    -0.71878,1.00000,1
-30.00661, 7.36000,    -0.71205,1.00000,1
-30.00629, 7.40000,    -0.70533,1.00000,1
-30.00598, 7.44000,    -0.69938,1.00000,1
-30.00576, 7.48000,    -0.69715,1.00000,1
-30.00570, 7.52000,    -0.70191,1.00000,1
-30.00577, 7.56000,    -0.71210,1.00000,1
-30.00582, 7.60000,    -0.72134,1.00000,1
-30.00574, 7.64000,    -0.72429,1.00000,1
-30.00551, 7.68000,    -0.72070,1.00000,1
-30.00517, 7.72000,    -0.71171,1.00000,1
-30.00478, 7.76000,    -0.70099,1.00000,1
-30.00441, 7.80000,    -0.69472,1.00000,1
-30.00415, 7.84000,    -0.69728,1.00000,1
-30.00401, 7.88000,    -0.70542,1.00000,1
-30.00403, 7.92000,    -0.71403,1.00000,1
-30.00413, 7.96000,    -0.71937,1.00000,1
-30.00418, 8.00000,    -0.71905,1.00000,1
-30.00406, 8.04000,    -0.71197,1.00000,1
-30.00380, 8.08000,    -0.70174,1.00000,1
-30.00348, 8.12000,    -0.69314,1.00000,1
-30.00315, 8.16000,    -0.68897,1.00000,1
-30.00288, 8.20000,    -0.69015,1.00000,1
-30.00273, 8.24000,    -0.69658,1.00000,1
-30.00271, 8.28000,    -0.70455,1.00000,1
-30.00286, 8.32000,    -0.70956,1.00000,1
-30.00309, 8.36000,    -0.70963,1.00000,1
-30.00324, 8.40000,    -0.70531,1.00000,1
-30.00316, 8.44000,    -0.69764,1.00000,1
-30.00295, 8.48000,    -0.68918,1.00000,1
-30.00271, 8.52000,    -0.68284,1.00000,1
-30.00255, 8.56000,    -0.68073,1.00000,1
-30.00253, 8.60000,    -0.68409,1.00000,1
-30.00269, 8.64000,    -0.69302,1.00000,1
-30.00296, 8.68000,    -0.70312,1.00000,1
-30.00327, 8.72000,    -0.70904,1.00000,1
-30.00351, 8.76000,    -0.70863,1.00000,1
-30.00359, 8.80000,    -0.70304,1.00000,1
-30.00344, 8.84000,    -0.69399,1.00000,1
-30.00323, 8.88000,    -0.68499,1.00000,1
-30.00318, 8.92000,    -0.67989,1.00000,1
-30.00321, 8.96000,    -0.67998,1.00000,1
-30.00300, 9.00000,    -0.68406,1.00000,1
-30.00247, 9.04000,    -0.69044,1.00000,1
-30.00268, 9.08000,    -0.69615,1.00000,1
-30.00486, 9.12000,    -0.69798,1.00000,1
-30.00824, 9.16000,    -0.69498,1.00000,1
-30.01000, 9.20000,    -0.68852,1.00000,1
-30.00823, 9.24000,    -0.68036,1.00000,1
-30.00497, 9.28000,    -0.67361,1.00000,1
-30.00316, 9.32000,    -0.67155,1.00000,1
-30.00350, 9.36000,    -0.67473,1.00000,1
-30.00446, 9.40000,    -0.68097,1.00000,1
-30.00478, 9.44000,    -0.68788,1.00000,1
-30.00467, 9.48000,    -0.69289,1.00000,1
-30.00470, 9.52000,    -0.69344,1.00000,1
-30.00502, 9.56000,    -0.68897,1.00000,1
-30.00533, 9.60000,    -0.68090,1.00000,1
-30.00542, 9.64000,    -0.67119,1.00000,1
-30.00534, 9.68000,    -0.66360,1.00000,1
-30.00524, 9.72000,    -0.66214,1.00000,1
-30.00514, 9.76000,    -0.66708,1.00000,1
-30.00500, 9.80000,    -0.67487,1.00000,1
-30.00480, 9.84000,    -0.68215,1.00000,1
-30.00481, 9.88000,    -0.68690,1.00000,1
-30.00534, 9.92000,    -0.68740,1.00000,1
-30.00626, 9.96000,    -0.68209,1.00000,1
-30.00700,10.00000,    -0.66947,1.00000,1
-29.98610,10.04000,    -0.66459,1.00000,2
-29.71891,10.08000,    -0.13673,1.00000,2
-29.27670,10.12000,     1.06695,1.00000,2
-28.83207,10.16000,     1.98888,1.00000,2
-28.31761,10.20000,     2.32391,1.00000,2
-27.79498,10.24000,     2.11984,1.00000,2
-27.30315,10.28000,     1.62159,1.00000,2
-26.85692,10.32000,     1.05095,1.00000,2
-26.45202,10.36000,     0.55238,1.00000,2
-26.07669,10.40000,     0.20817,1.00000,2
-25.71750,10.44000, 2.2337e-002,1.00000,2
-25.36396,10.48000,-3.9699e-002,1.00000,2
-25.01016,10.52000,-3.6193e-002,1.00000,2
-24.65323,10.56000, 4.0918e-003,1.00000,2
-24.29279,10.60000, 4.1370e-002,1.00000,2
-23.92844,10.64000, 9.3651e-002,1.00000,2
-23.56069,10.68000,     0.12280,1.00000,2
-23.18967,10.72000,     0.17619,1.00000,2
-22.81563,10.76000,     0.20393,1.00000,2
-22.43852,10.80000,     0.23922,1.00000,2
-22.05852,10.84000,     0.25560,1.00000,2
-21.67627,10.88000,     0.28001,1.00000,2
-21.29151,10.92000,     0.29559,1.00000,2
-20.90484,10.96000,     0.31653,1.00000,2
-20.51588,11.00000,     0.32029,1.00000,2
-20.12601,11.04000,     0.33684,1.00000,2
-19.73389,11.08000,     0.34444,1.00000,2
-19.34060,11.12000,     0.34995,1.00000,2
-18.94595,11.16000,     0.35970,1.00000,2
-18.55034,11.20000,     0.36509,1.00000,2
-18.15371,11.24000,     0.38074,1.00000,2
-17.75601,11.28000,     0.38627,1.00000,2
-17.35717,11.32000,     0.38385,1.00000,2
-16.95748,11.36000,     0.39990,1.00000,2
-16.55668,11.40000,     0.40235,1.00000,2
-16.15514,11.44000,     0.40280,1.00000,2
-15.75305,11.48000,     0.41462,1.00000,2
-15.35077,11.52000,     0.41280,1.00000,2
-14.94811,11.56000,     0.41909,1.00000,2
-14.54533,11.60000,     0.42003,1.00000,2
-14.14217,11.64000,     0.42291,1.00000,2
-13.73850,11.68000,     0.43376,1.00000,2
-13.33480,11.72000,     0.43233,1.00000,2
-12.93108,11.76000,     0.43838,1.00000,2
-12.52698,11.80000,     0.43631,1.00000,2
-12.12303,11.84000,     0.44105,1.00000,2
-11.71913,11.88000,     0.44992,1.00000,2
-11.31495,11.92000,     0.44400,1.00000,2
-10.91034,11.96000,     0.45649,1.00000,2
-10.50562,12.00000,     0.45222,1.00000,2
-10.10066,12.04000,     0.45483,1.00000,2
 -9.69572,12.08000,     0.45708,1.00000,2
 -9.29083,12.12000,     0.45810,1.00000,2
 -8.88600,12.16000,     0.46063,1.00000,2
 -8.48125,12.20000,     0.46656,1.00000,2
 -8.07626,12.24000,     0.46917,1.00000,2
 -7.67087,12.28000,     0.46223,1.00000,2
 -7.26563,12.32000,     0.47317,1.00000,2
 -6.86058,12.36000,     0.47037,1.00000,2
 -6.45544,12.40000,     0.47195,1.00000,2
 -6.05034,12.44000,     0.46916,1.00000,2
 -5.64529,12.48000,     0.46856,1.00000,2
 -5.23996,12.52000,     0.46502,1.00000,2
 -4.83472,12.56000,     0.47421,1.00000,2
 -4.42966,12.60000,     0.46574,1.00000,2
 -4.02486,12.64000,     0.47325,1.00000,2
 -3.61999,12.68000,     0.46815,1.00000,2
 -3.21553,12.72000,     0.47548,1.00000,2
 -2.81123,12.76000,     0.46975,1.00000,2
 -2.40728,12.80000,     0.47141,1.00000,2
 -2.00281,12.84000,     0.47231,1.00000,2
 -1.59847,12.88000,     0.47206,1.00000,2
 -1.19418,12.92000,     0.47802,1.00000,2
 -0.79018,12.96000,     0.47377,1.00000,2
 -0.38552,13.00000,     0.47379,1.00000,2
  0.01872,13.04000,     0.46619,1.00000,2
  0.42267,13.08000,     0.47303,1.00000,2
  0.82645,13.12000,     0.47027,1.00000,2
  1.23030,13.16000,     0.47366,1.00000,2
  1.63397,13.20000,     0.47332,1.00000,2
  2.03769,13.24000,     0.47575,1.00000,2
  2.44164,13.28000,     0.47053,1.00000,2
  2.84553,13.32000,     0.47028,1.00000,2
  3.24968,13.36000,     0.47633,1.00000,2
  3.65382,13.40000,     0.45779,1.00000,2
  4.05786,13.44000,     0.46124,1.00000,2
  4.46188,13.48000,     0.47099,1.00000,2
  4.86563,13.52000,     0.46254,1.00000,2
  5.26922,13.56000,     0.46164,1.00000,2
  5.67284,13.60000,     0.45990,1.00000,2
  6.07640,13.64000,     0.45781,1.00000,2
  6.47994,13.68000,     0.45454,1.00000,2
  6.88340,13.72000,     0.45382,1.00000,2
  7.28664,13.76000,     0.46112,1.00000,2
  7.68965,13.80000,     0.45391,1.00000,2
  8.09251,13.84000,     0.45087,1.00000,2
  8.49513,13.88000,     0.44902,1.00000,2
  8.89779,13.92000,     0.45510,1.00000,2
  9.30047,13.96000,     0.46673,1.00000,2
  9.70318,14.00000,     0.45091,1.00000,2
 10.10613,14.04000,     0.45429,1.00000,2
 10.50885,14.08000,     0.45300,1.00000,2
 10.91151,14.12000,     0.45310,1.00000,2
 11.31432,14.16000,     0.45046,1.00000,2
 11.71718,14.20000,     0.45036,1.00000,2
 12.11985,14.24000,     0.44844,1.00000,2
 12.52233,14.28000,     0.44650,1.00000,2
 12.92476,14.32000,     0.44588,1.00000,2
 13.32710,14.36000,     0.45112,1.00000,2
 13.72929,14.40000,     0.44071,1.00000,2
 14.13170,14.44000,     0.44971,1.00000,2
 14.53429,14.48000,     0.44315,1.00000,2
 14.93680,14.52000,     0.44013,1.00000,2
 15.33910,14.56000,     0.44053,1.00000,2
 15.74167,14.60000,     0.43408,1.00000,2
 16.14381,14.64000,     0.43039,1.00000,2
 16.54553,14.68000,     0.42919,1.00000,2
 16.94748,14.72000,     0.42735,1.00000,2
 17.34929,14.76000,     0.43198,1.00000,2
 17.75110,14.80000,     0.42644,1.00000,2
 18.15296,14.84000,     0.43018,1.00000,2
 18.55510,14.88000,     0.42409,1.00000,2
 18.95691,14.92000,     0.41818,1.00000,2
 19.35881,14.96000,     0.42432,1.00000,2
 19.76053,15.00000,     0.41948,1.00000,2
 20.16243,15.04000,     0.41413,1.00000,2
 20.56415,15.08000,     0.40953,1.00000,2
 20.96628,15.12000,     0.41250,1.00000,2
 21.36839,15.16000,     0.41507,1.00000,2
 21.77025,15.20000,     0.41345,1.00000,2
 22.17206,15.24000,     0.40568,1.00000,2
 22.57364,15.28000,     0.41373,1.00000,2
 22.97507,15.32000,     0.40606,1.00000,2
 23.37617,15.36000,     0.39084,1.00000,2
 23.77735,15.40000,     0.38745,1.00000,2
 24.17869,15.44000,     0.39784,1.00000,2
 24.57988,15.48000,     0.39809,1.00000,2
 24.98130,15.52000,     0.39758,1.00000,2
 25.38264,15.56000,     0.38984,1.00000,2
 25.78412,15.60000,     0.38731,1.00000,2
 26.18559,15.64000,     0.38931,1.00000,2
 26.58711,15.68000,     0.39552,1.00000,2
 26.98867,15.72000,     0.38014,1.00000,2
 27.38992,15.76000,     0.38199,1.00000,2
 27.79126,15.80000,     0.37477,1.00000,2
 28.19249,15.84000,     0.37010,1.00000,2
 28.59360,15.88000,     0.37430,1.00000,2
 28.99455,15.92000,     0.36733,1.00000,2
 29.39554,15.96000,     0.37269,1.00000,2
 29.79660,16.00000,     0.35996,1.00000,2
 30.19756,16.04000,     0.36669,1.00000,2
 30.59851,16.08000,     0.36497,1.00000,2
 30.99946,16.12000,     0.35970,1.00000,2
 31.40055,16.16000,     0.35662,1.00000,2
 31.80136,16.20000,     0.35153,1.00000,2
 32.20213,16.24000,     0.35613,1.00000,2
 32.60302,16.28000,     0.34972,1.00000,2
 33.00380,16.32000,     0.34418,1.00000,2
 33.40446,16.36000,     0.34383,1.00000,2
 33.80537,16.40000,     0.34127,1.00000,2
 34.20625,16.44000,     0.33880,1.00000,2
 34.60723,16.48000,     0.34710,1.00000,2
 35.00802,16.52000,     0.34368,1.00000,2
 35.40880,16.56000,     0.33806,1.00000,2
 35.80959,16.60000,     0.33481,1.00000,2
 36.21055,16.64000,     0.33778,1.00000,2
 36.61137,16.68000,     0.33842,1.00000,2
 37.01218,16.72000,     0.32599,1.00000,2
 37.41284,16.76000,     0.32729,1.00000,2
 37.81366,16.80000,     0.32898,1.00000,2
 38.21431,16.84000,     0.31576,1.00000,2
 38.61513,16.88000,     0.32489,1.00000,2
 39.01593,16.92000,     0.32480,1.00000,2
 39.41690,16.96000,     0.31970,1.00000,2
 39.81770,17.00000,     0.30986,1.00000,2
 40.21851,17.04000,     0.31268,1.00000,2
 40.61922,17.08000,     0.30316,1.00000,2
 41.01976,17.12000,     0.30645,1.00000,2
 41.42004,17.16000,     0.30585,1.00000,2
 41.82060,17.20000,     0.30423,1.00000,2
 42.22104,17.24000,     0.30456,1.00000,2
 42.62141,17.28000,     0.29692,1.00000,2
 43.02185,17.32000,     0.29851,1.00000,2
 43.42236,17.36000,     0.28966,1.00000,2
 43.82290,17.40000,     0.29348,1.00000,2
 44.22345,17.44000,     0.29096,1.00000,2
 44.62428,17.48000,     0.29347,1.00000,2
 45.02484,17.52000,     0.28336,1.00000,2
 45.42565,17.56000,     0.28657,1.00000,2
 45.82678,17.60000,     0.29127,1.00000,2
 46.22775,17.64000,     0.27860,1.00000,2
 46.62855,17.68000,     0.26834,1.00000,2
 47.02956,17.72000,     0.26614,1.00000,2
 47.43022,17.76000,     0.27037,1.00000,2
 47.83094,17.80000,     0.26713,1.00000,2
 48.23164,17.84000,     0.26582,1.00000,2
 48.63224,17.88000,     0.26785,1.00000,2
 49.03274,17.92000,     0.25972,1.00000,2
 49.43315,17.96000,     0.25317,1.00000,2
 49.83342,18.00000,     0.25974,1.00000,2
 50.23362,18.04000,     0.24968,1.00000,2
 50.63385,18.08000,     0.24577,1.00000,2
 51.03405,18.12000,     0.25245,1.00000,2
 51.43460,18.16000,     0.24800,1.00000,2
 51.83498,18.20000,     0.24474,1.00000,2
 52.23537,18.24000,     0.24611,1.00000,2
 52.63588,18.28000,     0.24006,1.00000,2
 53.03665,18.32000,     0.24232,1.00000,2
 53.43727,18.36000,     0.23276,1.00000,2
 53.83805,18.40000,     0.23199,1.00000,2
 54.23832,18.44000,     0.23552,1.00000,2
 54.63881,18.48000,     0.22234,1.00000,2
 55.03889,18.52000,     0.21891,1.00000,2
 55.43910,18.56000,     0.22377,1.00000,2
 55.83927,18.60000,     0.22356,1.00000,2
 56.23989,18.64000,     0.21653,1.00000,2
 56.64056,18.68000,     0.21449,1.00000,2
 57.04105,18.72000,     0.21802,1.00000,2
 57.44137,18.76000,     0.20920,1.00000,2
 57.84172,18.80000,     0.20879,1.00000,2
 58.24194,18.84000,     0.20325,1.00000,2
 58.64215,18.88000,     0.20256,1.00000,2
 59.04261,18.92000,     0.20407,1.00000,2
 59.44314,18.96000,     0.19771,1.00000,2
 59.84361,19.00000,     0.19683,1.00000,2
 60.24391,19.04000,     0.19458,1.00000,2
 60.64419,19.08000,     0.18990,1.00000,2
 61.04439,19.12000,     0.19060,1.00000,2
 61.44467,19.16000,     0.19132,1.00000,2
 61.84503,19.20000,     0.18580,1.00000,2
 62.24543,19.24000,     0.18194,1.00000,2
 62.64565,19.28000,     0.17591,1.00000,2
 63.04590,19.32000,     0.17597,1.00000,2
 63.44604,19.36000,     0.18106,1.00000,2
 63.84605,19.40000,     0.17563,1.00000,2
 64.24598,19.44000,     0.17256,1.00000,2
 64.64648,19.48000,     0.16886,1.00000,2
 65.04666,19.52000,     0.16939,1.00000,2
 65.44709,19.56000,     0.16908,1.00000,2
 65.84752,19.60000,     0.16832,1.00000,2
 66.24781,19.64000,     0.16305,1.00000,2
 66.64799,19.68000,     0.15833,1.00000,2
 67.04842,19.72000,     0.16087,1.00000,2
 67.44899,19.76000,     0.15667,1.00000,2
 67.84938,19.80000,     0.15039,1.00000,2
 68.25003,19.84000,     0.15275,1.00000,2
 68.65048,19.88000,     0.14940,1.00000,2
 69.05089,19.92000,     0.14820,1.00000,2
 69.45119,19.96000,     0.14787,1.00000,2
 69.85170,20.00000,     0.14129,1.00000,2
 70.25187,20.04000,     0.14331,1.00000,2
 70.65186,20.08000,     0.14087,1.00000,2
 71.05191,20.12000,     0.13617,1.00000,2
 71.45185,20.16000,     0.13614,1.00000,2
 71.85180,20.20000,     0.13481,1.00000,2
 72.25184,20.24000,     0.13006,1.00000,2
 72.65236,20.28000,     0.12687,1.00000,2
 73.05279,20.32000,     0.12619,1.00000,2
 73.45318,20.36000,     0.12433,1.00000,2
 73.85366,20.40000,     0.12150,1.00000,2
 74.25417,20.44000,     0.12409,1.00000,2
 74.65434,20.48000,     0.11821,1.00000,2
 75.05451,20.52000,     0.11181,1.00000,2
 75.45480,20.56000,     0.11392,1.00000,2
 75.85523,20.60000,     0.11699,1.00000,2
 76.25533,20.64000,     0.10592,1.00000,2
 76.65561,20.68000,     0.10775,1.00000,2
 77.05605,20.72000,     0.10383,1.00000,2
 77.45614,20.76000, 9.7779e-002,1.00000,2
 77.85625,20.80000, 9.7140e-002,1.00000,2
 78.25638,20.84000, 9.8030e-002,1.00000,2
 78.65658,20.88000, 9.2884e-002,1.00000,2
 79.05680,20.92000, 8.6946e-002,1.00000,2
 79.45710,20.96000, 8.9701e-002,1.00000,2
 79.85728,21.00000, 8.6041e-002,1.00000,2
 80.25771,21.04000, 8.6697e-002,1.00000,2
 80.65809,21.08000, 8.6228e-002,1.00000,2
 81.05862,21.12000, 8.0324e-002,1.00000,2
 81.45871,21.16000, 7.7859e-002,1.00000,2
 81.85899,21.20000, 7.5908e-002,1.00000,2
 82.25891,21.24000, 7.6791e-002,1.00000,2
 82.65890,21.28000, 7.3102e-002,1.00000,2
 83.05885,21.32000, 6.7016e-002,1.00000,2
 83.45918,21.36000, 7.5286e-002,1.00000,2
 83.85942,21.40000, 6.5458e-002,1.00000,2
 84.25998,21.44000, 6.2501e-002,1.00000,2
 84.66042,21.48000, 5.6647e-002,1.00000,2
 85.06070,21.52000, 5.5563e-002,1.00000,2
 85.46081,21.56000, 5.3245e-002,1.00000,2
 85.86077,21.60000, 5.3268e-002,1.00000,2
 86.26067,21.64000, 4.5709e-002,1.00000,2
 86.66067,21.68000, 4.1303e-002,1.00000,2
 87.06039,21.72000, 3.8394e-002,1.00000,2
 87.46019,21.76000, 4.1997e-002,1.00000,2
 87.86010,21.80000, 4.0489e-002,1.00000,2
 88.25999,21.84000, 3.5524e-002,1.00000,2
 88.66001,21.88000, 2.9815e-002,1.00000,2
 89.06004,21.92000, 2.9535e-002,1.00000,2
 89.46029,21.96000, 3.1065e-002,1.00000,2
 89.86034,22.00000, 2.4631e-002,1.00000,2
 90.26053,22.04000, 2.9419e-002,1.00000,2
 90.66057,22.08000, 2.0820e-002,1.00000,2
 91.06076,22.12000, 1.7555e-002,1.00000,2
 91.46086,22.16000, 2.3095e-002,1.00000,2
 91.86112,22.20000, 1.3389e-002,1.00000,2
 92.26148,22.24000, 1.2247e-002,1.00000,2
 92.66184,22.28000, 1.2269e-002,1.00000,2
 93.06209,22.32000, 7.2311e-003,1.00000,2
 93.46213,22.36000, 6.6347e-003,1.00000,2
 93.86242,22.40000,-1.1855e-003,1.00000,2
 94.26242,22.44000, 4.1694e-005,1.00000,2
 94.66263,22.48000,-3.0817e-003,1.00000,2
 95.06275,22.52000,-4.9748e-003,1.00000,2
 95.46294,22.56000,-5.0151e-003,1.00000,2
 95.86319,22.60000,-1.3457e-002,1.00000,2
 96.26329,22.64000,-2.0062e-002,1.00000,2
 96.66338,22.68000,-2.1630e-002,1.00000,2
 97.06342,22.72000,-2.2846e-002,1.00000,2
 97.46356,22.76000,-2.6039e-002,1.00000,2
 97.86381,22.80000,-2.7810e-002,1.00000,2
 98.26404,22.84000,-3.6964e-002,1.00000,2
 98.66406,22.88000,-4.0784e-002,1.00000,2
 99.06419,22.92000,-4.0911e-002,1.00000,2
 99.46419,22.96000,-3.8607e-002,1.00000,2
 99.86447,23.00000,-3.9463e-002,1.00000,2
100.264,23.04000,-4.4539e-002,1.00000,2
100.664,23.08000,-4.2780e-002,1.00000,2
101.065,23.12000,-4.7244e-002,1.00000,2
101.465,23.16000,-4.8901e-002,1.00000,2
101.865,23.20000,-4.9062e-002,1.00000,2
102.265,23.24000,-4.8769e-002,1.00000,2
102.665,23.28000,-5.5260e-002,1.00000,2
103.066,23.32000,-5.3895e-002,1.00000,2
103.466,23.36000,-5.3041e-002,1.00000,2
103.866,23.40000,-5.9009e-002,1.00000,2
104.266,23.44000,-6.0129e-002,1.00000,2
104.666,23.48000,-6.0124e-002,1.00000,2
105.066,23.52000,-6.5443e-002,1.00000,2
105.467,23.56000,-6.3264e-002,1.00000,2
105.867,23.60000,-6.7974e-002,1.00000,2
106.268,23.64000,-7.2465e-002,1.00000,2
106.668,23.68000,-7.1845e-002,1.00000,2
107.069,23.72000,-7.7442e-002,1.00000,2
107.469,23.76000,-7.9288e-002,1.00000,2
107.869,23.80000,-8.2185e-002,1.00000,2
108.27,23.84000,-8.9855e-002,1.00000,2
108.67,23.88000,-8.8089e-002,1.00000,2
109.07,23.92000,-9.0544e-002,1.00000,2
109.47,23.96000,-8.9115e-002,1.00000,2
109.871,24.00000,-9.3732e-002,1.00000,2
110.27,24.04000,-9.5973e-002,1.00000,2
110.67,24.08000,-9.9356e-002,1.00000,2
111.07,24.12000,    -0.10531,1.00000,2
111.47,24.16000,    -0.10247,1.00000,2
111.87,24.20000,    -0.10328,1.00000,2
112.27,24.24000,    -0.11103,1.00000,2
112.671,24.28000,    -0.10881,1.00000,2
113.071,24.32000,    -0.11057,1.00000,2
113.471,24.36000,    -0.11187,1.00000,2
113.871,24.40000,    -0.11308,1.00000,2
114.271,24.44000,    -0.11480,1.00000,2
114.671,24.48000,    -0.12510,1.00000,2
115.071,24.52000,    -0.12125,1.00000,2
115.471,24.56000,    -0.12656,1.00000,2
115.871,24.60000,    -0.12764,1.00000,2
116.271,24.64000,    -0.12884,1.00000,2
116.672,24.68000,    -0.13250,1.00000,2
117.072,24.72000,    -0.13546,1.00000,2
117.472,24.76000,    -0.12911,1.00000,2
117.872,24.80000,    -0.13929,1.00000,2
118.273,24.84000,    -0.14235,1.00000,2
118.673,24.88000,    -0.14537,1.00000,2
119.073,24.92000,    -0.14972,1.00000,2
119.473,24.96000,    -0.14793,1.00000,2
119.874,25.00000,    -0.15510,1.00000,2
120.274,25.04000,    -0.15496,1.00000,2
120.674,25.08000,    -0.15451,1.00000,2
121.074,25.12000,    -0.16028,1.00000,2
121.474,25.16000,    -0.15886,1.00000,2
121.874,25.20000,    -0.16204,1.00000,2
122.274,25.24000,    -0.16298,1.00000,2
122.674,25.28000,    -0.16693,1.00000,2
123.074,25.32000,    -0.17320,1.00000,2
123.474,25.36000,    -0.16843,1.00000,2
123.874,25.40000,    -0.16736,1.00000,2
124.274,25.44000,    -0.17174,1.00000,2
124.674,25.48000,    -0.17615,1.00000,2
125.074,25.52000,    -0.17955,1.00000,2
125.474,25.56000,    -0.17776,1.00000,2
125.874,25.60000,    -0.18269,1.00000,2
126.275,25.64000,    -0.18871,1.00000,2
126.675,25.68000,    -0.18975,1.00000,2
127.075,25.72000,    -0.19264,1.00000,2
127.475,25.76000,    -0.19646,1.00000,2
127.876,25.80000,    -0.19839,1.00000,2
128.276,25.84000,    -0.20242,1.00000,2
128.676,25.88000,    -0.20460,1.00000,2
129.076,25.92000,    -0.20373,1.00000,2
129.476,25.96000,    -0.20513,1.00000,2
129.876,26.00000,    -0.21095,1.00000,2
130.276,26.04000,    -0.20565,1.00000,2
130.676,26.08000,    -0.21312,1.00000,2
131.076,26.12000,    -0.21109,1.00000,2
131.476,26.16000,    -0.21255,1.00000,2
131.877,26.20000,    -0.22197,1.00000,2
132.277,26.24000,    -0.21800,1.00000,2
132.677,26.28000,    -0.21658,1.00000,2
133.077,26.32000,    -0.22506,1.00000,2
133.477,26.36000,    -0.22642,1.00000,2
133.877,26.40000,    -0.23502,1.00000,2
134.277,26.44000,    -0.23766,1.00000,2
134.677,26.48000,    -0.23255,1.00000,2
135.077,26.52000,    -0.23464,1.00000,2
135.476,26.56000,    -0.23577,1.00000,2
135.876,26.60000,    -0.23794,1.00000,2
136.276,26.64000,    -0.23924,1.00000,2
136.676,26.68000,    -0.24018,1.00000,2
137.076,26.72000,    -0.24231,1.00000,2
137.477,26.76000,    -0.25085,1.00000,2
137.877,26.80000,    -0.24875,1.00000,2
138.277,26.84000,    -0.25094,1.00000,2
138.677,26.88000,    -0.25193,1.00000,2
139.077,26.92000,    -0.25198,1.00000,2
139.477,26.96000,    -0.26177,1.00000,2
139.877,27.00000,    -0.25610,1.00000,2
140.277,27.04000,    -0.26448,1.00000,2
140.677,27.08000,    -0.26144,1.00000,2
141.077,27.12000,    -0.26411,1.00000,2
141.477,27.16000,    -0.26898,1.00000,2
141.877,27.20000,    -0.27355,1.00000,2
142.277,27.24000,    -0.26963,1.00000,2
142.678,27.28000,    -0.27672,1.00000,2
143.078,27.32000,    -0.28414,1.00000,2
143.478,27.36000,    -0.27798,1.00000,2
143.878,27.40000,    -0.27819,1.00000,2
144.278,27.44000,    -0.28272,1.00000,2
144.678,27.48000,    -0.28548,1.00000,2
145.078,27.52000,    -0.29337,1.00000,2
145.478,27.56000,    -0.29454,1.00000,2
145.878,27.60000,    -0.28877,1.00000,2
146.278,27.64000,    -0.29870,1.00000,2
146.678,27.68000,    -0.29611,1.00000,2
147.078,27.72000,    -0.29295,1.00000,2
147.478,27.76000,    -0.29916,1.00000,2
147.879,27.80000,    -0.29685,1.00000,2
148.279,27.84000,    -0.30292,1.00000,2
148.68,27.88000,    -0.30137,1.00000,2
149.08,27.92000,    -0.30863,1.00000,2
149.48,27.96000,    -0.30948,1.00000,2
149.88,28.00000,    -0.30803,1.00000,2
150.28,28.04000,    -0.31100,1.00000,2
150.68,28.08000,    -0.31409,1.00000,2
151.08,28.12000,    -0.31278,1.00000,2
151.48,28.16000,    -0.31653,1.00000,2
151.881,28.20000,    -0.31488,1.00000,2
152.281,28.24000,    -0.32128,1.00000,2
152.681,28.28000,    -0.32298,1.00000,2
153.081,28.32000,    -0.32224,1.00000,2
153.482,28.36000,    -0.33040,1.00000,2
153.882,28.40000,    -0.33685,1.00000,2
154.282,28.44000,    -0.33148,1.00000,2
154.682,28.48000,    -0.33709,1.00000,2
155.081,28.52000,    -0.33670,1.00000,2
155.481,28.56000,    -0.33613,1.00000,2
155.881,28.60000,    -0.33796,1.00000,2
156.281,28.64000,    -0.33488,1.00000,2
156.681,28.68000,    -0.33776,1.00000,2
157.081,28.72000,    -0.34942,1.00000,2
157.481,28.76000,    -0.34827,1.00000,2
157.881,28.80000,    -0.34895,1.00000,2
158.281,28.84000,    -0.35906,1.00000,2
158.681,28.88000,    -0.35388,1.00000,2
159.082,28.92000,    -0.35440,1.00000,2
159.482,28.96000,    -0.35987,1.00000,2
159.882,29.00000,    -0.36421,1.00000,2
160.282,29.04000,    -0.36367,1.00000,2
160.683,29.08000,    -0.36633,1.00000,2
161.083,29.12000,    -0.36226,1.00000,2
161.483,29.16000,    -0.36341,1.00000,2
161.884,29.20000,    -0.36580,1.00000,2
162.284,29.24000,    -0.37080,1.00000,2
162.684,29.28000,    -0.36687,1.00000,2
163.084,29.32000,    -0.37088,1.00000,2
163.485,29.36000,    -0.37493,1.00000,2
163.885,29.40000,    -0.37741,1.00000,2
164.285,29.44000,    -0.38067,1.00000,2
164.685,29.48000,    -0.38264,1.00000,2
165.085,29.52000,    -0.38385,1.00000,2
165.485,29.56000,    -0.38209,1.00000,2
165.885,29.60000,    -0.38383,1.00000,2
166.284,29.64000,    -0.39282,1.00000,2
166.684,29.68000,    -0.39448,1.00000,2
167.084,29.72000,    -0.39643,1.00000,2
167.484,29.76000,    -0.39476,1.00000,2
167.885,29.80000,    -0.39394,1.00000,2
168.285,29.84000,    -0.39778,1.00000,2
168.685,29.88000,    -0.40413,1.00000,2
169.086,29.92000,    -0.40426,1.00000,2
169.486,29.96000,    -0.40266,1.00000,2
169.886,30.00000,    -0.40595,1.00000,2
170.287,30.04000,    -0.40980,1.00000,2
170.687,30.08000,    -0.41570,1.00000,2
171.087,30.12000,    -0.41582,1.00000,2
171.486,30.16000,    -0.41906,1.00000,2
171.886,30.20000,    -0.41770,1.00000,2
172.286,30.24000,    -0.42149,1.00000,2
172.686,30.28000,    -0.42454,1.00000,2
173.086,30.32000,    -0.42154,1.00000,2
173.486,30.36000,    -0.42843,1.00000,2
173.887,30.40000,    -0.42167,1.00000,2
174.287,30.44000,    -0.42488,1.00000,2
174.687,30.48000,    -0.42963,1.00000,2
175.087,30.52000,    -0.43088,1.00000,2
175.487,30.56000,    -0.43646,1.00000,2
175.888,30.60000,    -0.43970,1.00000,2
176.288,30.64000,    -0.44130,1.00000,2
176.688,30.68000,    -0.44644,1.00000,2
177.088,30.72000,    -0.44237,1.00000,2
177.488,30.76000,    -0.44794,1.00000,2
177.888,30.80000,    -0.45162,1.00000,2
178.288,30.84000,    -0.44804,1.00000,2
178.688,30.88000,    -0.44782,1.00000,2
179.088,30.92000,    -0.45384,1.00000,2
179.488,30.96000,    -0.45750,1.00000,2
179.888,31.00000,    -0.45975,1.00000,2
180.205,31.04000,    -0.49515,1.00000,3
180.407,31.08000,    -0.70068,1.00000,3
180.521,31.12000,    -1.01109,1.00000,3
180.558,31.16000,    -1.33797,1.00000,3
180.55,31.20000,    -1.54647,1.00000,3
180.533,31.24000,    -1.49808,1.00000,3
180.521,31.28000,    -1.20619,1.00000,3
180.511,31.32000,    -0.82806,1.00000,3
180.499,31.36000,    -0.49699,1.00000,3
180.485,31.40000,    -0.23509,1.00000,3
180.471,31.44000,-3.8180e-002,1.00000,3
180.459,31.48000,     0.10053,1.00000,3
180.448,31.52000,     0.19034,1.00000,3
180.437,31.56000,     0.24144,1.00000,3
180.427,31.60000,     0.26692,1.00000,3
180.419,31.64000,     0.28021,1.00000,3
180.41,31.68000,     0.28750,1.00000,3
180.401,31.72000,     0.28810,1.00000,3
180.391,31.76000,     0.28190,1.00000,3
180.384,31.80000,     0.27202,1.00000,3
180.385,31.84000,     0.26218,1.00000,3
180.391,31.88000,     0.25358,1.00000,3
180.394,31.92000,     0.24499,1.00000,3
180.385,31.96000,     0.23554,1.00000,3
180.37,32.00000,     0.22599,1.00000,3
180.355,32.04000,     0.21744,1.00000,3
180.343,32.08000,     0.20995,1.00000,3
180.332,32.12000,     0.20262,1.00000,3
180.322,32.16000,     0.19481,1.00000,3
180.312,32.20000,     0.18717,1.00000,3
180.304,32.24000,     0.18057,1.00000,3
180.296,32.28000,     0.17526,1.00000,3
180.289,32.32000,     0.17087,1.00000,3
180.283,32.36000,     0.16698,1.00000,3
180.277,32.40000,     0.16312,1.00000,3
180.271,32.44000,     0.15883,1.00000,3
180.266,32.48000,     0.15433,1.00000,3
180.261,32.52000,     0.15045,1.00000,3
180.256,32.56000,     0.14776,1.00000,3
180.252,32.60000,     0.14561,1.00000,3
180.248,32.64000,     0.14312,1.00000,3
180.244,32.68000,     0.14006,1.00000,3
180.24,32.72000,     0.13686,1.00000,3
180.237,32.76000,     0.13394,1.00000,3
180.233,32.80000,     0.13167,1.00000,3
180.23,32.84000,     0.13036,1.00000,3
180.226,32.88000,     0.12983,1.00000,3
180.223,32.92000,     0.12945,1.00000,3
180.22,32.96000,     0.12871,1.00000,3
180.217,33.00000,     0.12772,1.00000,3
180.214,33.04000,     0.12671,1.00000,3
180.211,33.08000,     0.12564,1.00000,3
180.208,33.12000,     0.12420,1.00000,3
180.205,33.16000,     0.12222,1.00000,3
180.203,33.20000,     0.11999,1.00000,3
180.2,33.24000,     0.11796,1.00000,3
180.197,33.28000,     0.11634,1.00000,3
180.194,33.32000,     0.11521,1.00000,3
180.192,33.36000,     0.11448,1.00000,3
180.189,33.40000,     0.11362,1.00000,3
180.186,33.44000,     0.11202,1.00000,3
180.184,33.48000,     0.10978,1.00000,3
180.181,33.52000,     0.10769,1.00000,3
180.179,33.56000,     0.10641,1.00000,3
180.176,33.60000,     0.10608,1.00000,3
180.173,33.64000,     0.10667,1.00000,3
180.171,33.68000,     0.10745,1.00000,3
180.168,33.72000,     0.10707,1.00000,3
180.166,33.76000,     0.10461,1.00000,3
180.163,33.80000,     0.10112,1.00000,3
180.161,33.84000, 9.8065e-002,1.00000,3
180.158,33.88000, 9.6225e-002,1.00000,3
180.156,33.92000, 9.5764e-002,1.00000,3
180.154,33.96000, 9.6541e-002,1.00000,3
180.151,34.00000, 9.7368e-002,1.00000,3
180.149,34.04000, 9.6881e-002,1.00000,3
180.147,34.08000, 9.5144e-002,1.00000,3
180.144,34.12000, 9.3575e-002,1.00000,3
180.142,34.16000, 9.3168e-002,1.00000,3
180.14,34.20000, 9.3132e-002,1.00000,3
180.137,34.24000, 9.2301e-002,1.00000,3
180.135,34.28000, 9.0464e-002,1.00000,3
180.133,34.32000, 8.8309e-002,1.00000,3
180.131,34.36000, 8.6448e-002,1.00000,3
180.128,34.40000, 8.5070e-002,1.00000,3
180.126,34.44000, 8.4247e-002,1.00000,3
180.124,34.48000, 8.3760e-002,1.00000,3
180.122,34.52000, 8.3110e-002,1.00000,3
180.12,34.56000, 8.1963e-002,1.00000,3
180.118,34.60000, 8.0655e-002,1.00000,3
180.116,34.64000, 7.9660e-002,1.00000,3
180.114,34.68000, 7.9076e-002,1.00000,3
180.112,34.72000, 7.8648e-002,1.00000,3
180.11,34.76000, 7.8201e-002,1.00000,3
180.108,34.80000, 7.7916e-002,1.00000,3
180.106,34.84000, 7.8039e-002,1.00000,3
180.105,34.88000, 7.8461e-002,1.00000,3
180.103,34.92000, 7.8736e-002,1.00000,3
180.101,34.96000, 7.8554e-002,1.00000,3
180.099,35.00000, 7.8171e-002,1.00000,3
180.097,35.04000, 7.7954e-002,1.00000,3
180.096,35.08000, 7.7822e-002,1.00000,3
180.094,35.12000, 7.7267e-002,1.00000,3
180.093,35.16000, 7.5957e-002,1.00000,3
180.091,35.20000, 7.4281e-002,1.00000,3
180.089,35.24000, 7.2790e-002,1.00000,3
180.088,35.28000, 7.1928e-002,1.00000,3
180.086,35.32000, 7.2038e-002,1.00000,3
180.085,35.36000, 7.3165e-002,1.00000,3
180.083,35.40000, 7.4246e-002,1.00000,3
180.082,35.44000, 7.4011e-002,1.00000,3
180.08,35.48000, 7.2251e-002,1.00000,3
180.079,35.52000, 6.9759e-002,1.00000,3
180.078,35.56000, 6.7333e-002,1.00000,3
180.076,35.60000, 6.5644e-002,1.00000,3
180.075,35.64000, 6.5285e-002,1.00000,3
180.074,35.68000, 6.5865e-002,1.00000,3
180.072,35.72000, 6.6057e-002,1.00000,3
180.071,35.76000, 6.4973e-002,1.00000,3
180.07,35.80000, 6.3511e-002,1.00000,3
180.068,35.84000, 6.2934e-002,1.00000,3
180.067,35.88000, 6.3360e-002,1.00000,3
180.066,35.92000, 6.3829e-002,1.00000,3
180.065,35.96000, 6.3530e-002,1.00000,3
180.064,36.00000, 6.2381e-002,1.00000,3
180.063,36.04000, 6.0499e-002,1.00000,3
180.062,36.08000, 5.8560e-002,1.00000,3
180.061,36.12000, 5.7774e-002,1.00000,3
180.059,36.16000, 5.8835e-002,1.00000,3
180.058,36.20000, 6.0430e-002,1.00000,3
180.057,36.24000, 6.0844e-002,1.00000,3
180.056,36.28000, 5.9837e-002,1.00000,3
180.055,36.32000, 5.8571e-002,1.00000,3
180.054,36.36000, 5.7862e-002,1.00000,3
180.054,36.40000, 5.7043e-002,1.00000,3
180.053,36.44000, 5.5164e-002,1.00000,3
180.052,36.48000, 5.2762e-002,1.00000,3
180.051,36.52000, 5.1781e-002,1.00000,3
180.05,36.56000, 5.3404e-002,1.00000,3
180.049,36.60000, 5.5747e-002,1.00000,3
180.048,36.64000, 5.6297e-002,1.00000,3
180.048,36.68000, 5.4518e-002,1.00000,3
180.047,36.72000, 5.1744e-002,1.00000,3
180.046,36.76000, 4.9271e-002,1.00000,3
180.046,36.80000, 4.7979e-002,1.00000,3
180.045,36.84000, 4.8586e-002,1.00000,3
180.044,36.88000, 5.0492e-002,1.00000,3
180.043,36.92000, 5.1851e-002,1.00000,3
180.042,36.96000, 5.1375e-002,1.00000,3
180.042,37.00000, 5.0055e-002,1.00000,3
180.041,37.04000, 4.9348e-002,1.00000,3
180.04,37.08000, 4.9175e-002,1.00000,3
180.04,37.12000, 4.8011e-002,1.00000,3
180.039,37.16000, 4.4989e-002,1.00000,3
180.039,37.20000, 4.1953e-002,1.00000,3
180.038,37.24000, 4.1262e-002,1.00000,3
180.038,37.28000, 4.2838e-002,1.00000,3
180.037,37.32000, 4.4292e-002,1.00000,3
180.037,37.36000, 4.3865e-002,1.00000,3
180.036,37.40000, 4.2502e-002,1.00000,3
180.035,37.44000, 4.1735e-002,1.00000,3
180.035,37.48000, 4.2017e-002,1.00000,3
180.034,37.52000, 4.2780e-002,1.00000,3
180.034,37.56000, 4.3466e-002,1.00000,3
180.033,37.60000, 4.3695e-002,1.00000,3
180.033,37.64000, 4.3154e-002,1.00000,3
180.032,37.68000, 4.1931e-002,1.00000,3
180.032,37.72000, 4.0495e-002,1.00000,3
180.031,37.76000, 3.9217e-002,1.00000,3
180.031,37.80000, 3.8048e-002,1.00000,3
180.03,37.84000, 3.6841e-002,1.00000,3
180.03,37.88000, 3.5573e-002,1.00000,3
180.03,37.92000, 3.4337e-002,1.00000,3
180.029,37.96000, 3.3235e-002,1.00000,3
180.029,38.00000, 3.2398e-002,1.00000,3
180.028,38.04000, 3.1957e-002,1.00000,3
180.028,38.08000, 3.1913e-002,1.00000,3
180.028,38.12000, 3.2148e-002,1.00000,3
180.027,38.16000, 3.2471e-002,1.00000,3
180.027,38.20000, 3.2439e-002,1.00000,3
180.027,38.24000, 3.1584e-002,1.00000,3
180.026,38.28000, 3.0160e-002,1.00000,3
180.026,38.32000, 2.9106e-002,1.00000,3
180.025,38.36000, 2.9139e-002,1.00000,3
180.025,38.40000, 3.0042e-002,1.00000,3
180.025,38.44000, 3.1363e-002,1.00000,3
180.024,38.48000, 3.2393e-002,1.00000,3
180.024,38.52000, 3.2175e-002,1.00000,3
180.024,38.56000, 3.0206e-002,1.00000,3
180.024,38.60000, 2.7735e-002,1.00000,3
180.023,38.64000, 2.6358e-002,1.00000,3
180.023,38.68000, 2.6376e-002,1.00000,3
180.023,38.72000, 2.6867e-002,1.00000,3
180.022,38.76000, 2.7064e-002,1.00000,3
180.022,38.80000, 2.6971e-002,1.00000,3
180.021,38.84000, 2.6767e-002,1.00000,3
180.021,38.88000, 2.6501e-002,1.00000,3
180.021,38.92000, 2.6095e-002,1.00000,3
180.021,38.96000, 2.5559e-002,1.00000,3
180.02,39.00000, 2.5261e-002,1.00000,3
180.02,39.04000, 2.5596e-002,1.00000,3
180.02,39.08000, 2.5911e-002,1.00000,3
180.02,39.12000, 2.4552e-002,1.00000,3
180.019,39.16000, 2.0721e-002,1.00000,3
180.019,39.20000, 1.6982e-002,1.00000,3
180.019,39.24000, 1.6523e-002,1.00000,3
180.019,39.28000, 1.9014e-002,1.00000,3
180.019,39.32000, 2.0798e-002,1.00000,3
180.018,39.36000, 1.9240e-002,1.00000,3
180.018,39.40000, 1.6026e-002,1.00000,3
180.018,39.44000, 1.3774e-002,1.00000,3
180.018,39.48000, 1.3349e-002,1.00000,3
180.018,39.52000, 1.3954e-002,1.00000,3
180.017,39.56000, 1.4857e-002,1.00000,3
180.017,39.60000, 1.5805e-002,1.00000,3
180.017,39.64000, 1.6657e-002,1.00000,3
180.017,39.68000, 1.7163e-002,1.00000,3
180.017,39.72000, 1.6975e-002,1.00000,3
180.017,39.76000, 1.5924e-002,1.00000,3
180.016,39.80000, 1.4538e-002,1.00000,3
180.016,39.84000, 1.3480e-002,1.00000,3
180.016,39.88000, 1.2889e-002,1.00000,3
180.016,39.92000, 1.2399e-002,1.00000,3
180.016,39.96000, 1.1796e-002,1.00000,3
180.016,40.00000, 1.1507e-002,1.00000,3
180.016,40.04000, 1.2077e-002,1.00000,3
180.015,40.08000, 1.3398e-002,1.00000,3
180.015,40.12000, 1.4742e-002,1.00000,3
180.015,40.16000, 1.5453e-002,1.00000,3
180.015,40.20000, 1.5230e-002,1.00000,3
180.015,40.24000, 1.3894e-002,1.00000,3
180.015,40.28000, 1.2024e-002,1.00000,3
180.015,40.32000, 1.0918e-002,1.00000,3
180.015,40.36000, 1.1385e-002,1.00000,3
180.014,40.40000, 1.2302e-002,1.00000,3
180.014,40.44000, 1.2159e-002,1.00000,3
180.014,40.48000, 1.0802e-002,1.00000,3
180.014,40.52000, 9.3656e-003,1.00000,3
180.014,40.56000, 8.7298e-003,1.00000,3
180.014,40.60000, 8.6345e-003,1.00000,3
180.014,40.64000, 8.5713e-003,1.00000,3
180.014,40.68000, 8.4597e-003,1.00000,3
180.014,40.72000, 8.6243e-003,1.00000,3
180.014,40.76000, 9.3040e-003,1.00000,3
180.013,40.80000, 1.0356e-002,1.00000,3
180.013,40.84000, 1.1553e-002,1.00000,3
180.013,40.88000, 1.2777e-002,1.00000,3
180.012,40.91000, 1.3702e-002,1.00000,3